subid,session,run,trial,trial_type,side,response,correct,strength,response_time,cumulative_response_time,fixation_onset,fixation_dur,stim_onset,stim_dur,blank_onset,blank_dur,mask_onset,mask_dur,response_onset,response_dur,go_side,Staircase_stimulus,Presentation Duration,frame
p05,1,1,1,go,right,right,1,strong,1.014,1.334,0,0.2,0.25,0.016666666666666666,0.26666666666666666,0.03333333333333333,0.3,0.2,0.5,1.3,right,12,0.0177392409004824,easy
p05,1,1,2,nogo,left,right,0,strong,0.836,2.863,1.8,0.2,2.05,0.016666666666666666,2.066666666666667,0.03333333333333333,2.1,0.2,2.3,1.3,right,12,0.0176855762665582,easy
p05,1,1,3,nogo,left,NA,1,weak,NA,NA,3.6,0.2,3.85,0.2,4.05,0.03333333333333333,4.083333333333333,0.016666666666666666,4.1,1.3,right,12,0.21344683257029828,easy
p05,1,1,4,nogo,left,NA,1,weak,NA,NA,5.4,0.2,5.65,0.2,5.85,0.03333333333333333,5.883333333333334,0.016666666666666666,5.9,1.3,right,12,0.21318496088133543,easy
p05,1,1,5,nogo,left,NA,1,weak,NA,NA,7.2,0.2,7.45,0.2,7.65,0.03333333333333333,7.683333333333334,0.016666666666666666,7.7,1.3,right,12,0.21339023544078373,easy
p05,1,1,7,nogo,left,right,0,strong,0.658,15.858,14.4,0.2,14.65,0.016666666666666666,14.666666666666666,0.03333333333333333,14.7,0.2,14.9,1.3,right,12,0.01783601319311856,easy
p05,1,1,8,go,right,right,1,weak,0.231,17.334,16.2,0.2,16.45,0.2,16.65,0.03333333333333333,16.683333333333334,0.016666666666666666,16.7,1.3,right,12,0.2132591529725687,easy
p05,1,1,9,catch,NA,right,1,catch,0.623,19.379,18,0.2,18.25,0.0,18.25,0.0,18.25,0.25,18.5,1.3,right,12,1.9061209059145767e-5,easy
p05,1,1,10,nogo,left,NA,1,weak,NA,NA,19.8,0.2,20.05,0.2,20.25,0.03333333333333333,20.283333333333335,0.016666666666666666,20.3,1.3,right,12,0.21327733443376928,easy
p05,1,1,11,nogo,left,NA,1,weak,NA,NA,21.6,0.2,21.85,0.2,22.05,0.03333333333333333,22.083333333333332,0.016666666666666666,22.1,1.3,right,12,0.21330636612128728,easy
p05,1,1,12,nogo,left,right,0,strong,0.569,24.836,23.4,0.2,23.65,0.016666666666666666,23.666666666666668,0.03333333333333333,23.7,0.2,23.9,1.3,right,12,0.0177436396415942,easy
p05,1,1,13,go,right,right,1,weak,0.356,26.525,25.2,0.2,25.45,0.2,25.65,0.03333333333333333,25.683333333333334,0.016666666666666666,25.7,1.3,right,12,0.21343275660001382,easy
p05,1,1,14,go,right,right,1,weak,0.303,28.374,27,0.2,27.25,0.2,27.45,0.03333333333333333,27.483333333333334,0.016666666666666666,27.5,1.3,right,12,0.2133084188662906,easy
p05,1,1,15,go,right,right,1,strong,0.729,30.507,28.8,0.2,29.05,0.016666666666666666,29.066666666666666,0.03333333333333333,29.1,0.2,29.3,1.3,right,12,0.01789935505712492,easy
p05,1,1,16,nogo,left,right,0,strong,0.64,32.125,30.6,0.2,30.85,0.016666666666666666,30.866666666666667,0.03333333333333333,30.9,0.2,31.1,1.3,right,12,0.017837479439549497,easy
p05,1,1,17,go,right,right,1,strong,0.569,33.761,32.4,0.2,32.65,0.016666666666666666,32.666666666666664,0.03333333333333333,32.7,0.2,32.9,1.3,right,12,0.017865924628495122,easy
p05,1,1,19,go,right,right,1,weak,0.32,37.334,36,0.2,36.25,0.2,36.45,0.03333333333333333,36.483333333333334,0.016666666666666666,36.5,1.3,right,12,0.21333129231788917,easy
p05,1,1,20,nogo,left,NA,1,weak,NA,NA,37.8,0.2,38.05,0.2,38.25,0.03333333333333333,38.28333333333333,0.016666666666666666,38.3,1.3,right,12,0.21331838934565894,easy
p05,1,1,21,go,right,right,1,weak,0.232,41.05,39.6,0.2,39.85,0.2,40.05,0.03333333333333333,40.083333333333336,0.016666666666666666,40.1,1.3,right,12,0.2134397945847013,easy
p05,1,1,22,nogo,left,right,0,strong,0.463,42.988,41.4,0.2,41.65,0.016666666666666666,41.666666666666664,0.03333333333333333,41.7,0.2,41.9,1.3,right,12,0.01780932749989006,easy
p05,1,1,23,nogo,left,right,0,strong,0.605,44.837,43.2,0.2,43.45,0.016666666666666666,43.46666666666667,0.03333333333333333,43.5,0.2,43.7,1.3,right,12,0.017742759893735638,easy
p05,1,1,24,go,right,right,1,weak,0.32,46.454,45,0.2,45.25,0.2,45.45,0.03333333333333333,45.483333333333334,0.016666666666666666,45.5,1.3,right,12,0.21332014884228556,easy
p05,1,1,25,go,right,right,1,strong,0.57,48.41,46.8,0.2,47.05,0.016666666666666666,47.06666666666667,0.03333333333333333,47.1,0.2,47.3,1.3,right,12,0.017730736668454483,easy
p05,1,1,26,nogo,left,NA,1,weak,NA,NA,48.6,0.2,48.85,0.2,49.05,0.03333333333333333,49.083333333333336,0.016666666666666666,49.1,1.3,right,12,0.21336589574275422,easy
p05,1,1,27,go,right,right,1,strong,0.428,51.877,50.4,0.2,50.65,0.016666666666666666,50.666666666666664,0.03333333333333333,50.7,0.2,50.9,1.3,right,12,0.017723112185194623,easy
p05,1,1,28,go,right,right,1,strong,0.623,53.779,52.2,0.2,52.45,0.016666666666666666,52.46666666666667,0.03333333333333333,52.5,0.2,52.7,1.3,right,12,0.017726924426824553,easy
p05,1,1,29,nogo,left,NA,1,weak,NA,NA,54,0.2,54.25,0.2,54.45,0.03333333333333333,54.483333333333334,0.016666666666666666,54.5,1.3,right,12,0.2132638449629667,easy
p05,1,1,30,catch,NA,right,1,catch,0.445,57.157,55.8,0.2,56.05,0.0,56.05,0.0,56.05,0.25,56.3,1.3,right,12,1.964770763152046e-5,easy
p05,1,1,31,go,right,right,1,weak,0.232,58.846,57.6,0.2,57.85,0.2,58.05,0.03333333333333333,58.083333333333336,0.016666666666666666,58.1,1.3,right,12,0.2133081256170044,easy
p05,1,1,32,go,right,right,1,weak,0.338,60.854,59.4,0.2,59.65,0.2,59.85,0.03333333333333333,59.88333333333333,0.016666666666666666,59.9,1.3,right,12,0.21331428385383333,easy
p05,1,1,34,catch,NA,right,1,catch,0.48,66.49,64.8,0.2,65.05,0.0,65.05,0.0,65.05,0.25,65.3,1.3,right,12,2.6685693228500895e-5,easy
p05,1,1,35,nogo,left,right,0,strong,0.48,68.197,66.6,0.2,66.85,0.016666666666666666,66.86666666666666,0.03333333333333333,66.9,0.2,67.1,1.3,right,12,0.017754196617715934,easy
p05,1,1,37,catch,NA,right,1,catch,0.552,71.841,70.2,0.2,70.45,0.0,70.45,0.0,70.45,0.25,70.7,1.3,right,12,1.964770763152046e-5,easy
p05,1,1,39,go,right,right,1,strong,0.445,75.361,73.8,0.2,74.05,0.016666666666666666,74.06666666666666,0.03333333333333333,74.1,0.2,74.3,1.3,right,12,0.01772516493110743,easy
p05,1,1,40,go,right,right,1,strong,0.427,77.05,75.6,0.2,75.85,0.016666666666666666,75.86666666666666,0.03333333333333333,75.9,0.2,76.1,1.3,right,12,0.017695839993393747,easy
p05,1,1,41,nogo,left,right,0,strong,0.445,78.775,77.4,0.2,77.65,0.016666666666666666,77.66666666666667,0.03333333333333333,77.7,0.2,77.9,1.3,right,12,0.017604639439014136,easy
p05,1,1,1,nogo,left,right,0,strong,0.498,87.788,84.2,0.2,84.45,0.016666666666666666,84.46666666666667,0.03333333333333333,84.5,0.2,84.7,1.3,right,12,0.017681764024018776,easy
p05,1,1,2,go,right,right,1,weak,0.214,89.406,86,0.2,86.25,0.2,86.45,0.03333333333333333,86.48333333333333,0.016666666666666666,86.5,1.3,right,12,0.2132298280357645,easy
p05,1,1,3,go,right,right,1,weak,0.249,91.344,87.8,0.2,88.05,0.2,88.25,0.03333333333333333,88.28333333333333,0.016666666666666666,88.3,1.3,right,12,0.21341222914361424,easy
p05,1,1,4,nogo,left,right,0,weak,0.249,93.246,89.6,0.2,89.85,0.2,90.05,0.03333333333333333,90.08333333333333,0.016666666666666666,90.1,1.3,right,12,0.21342513211584446,easy
p05,1,1,5,nogo,left,NA,1,weak,NA,NA,91.4,0.2,91.65,0.2,91.85,0.03333333333333333,91.88333333333334,0.016666666666666666,91.9,1.3,right,12,0.21335123327480687,easy
p05,1,1,7,nogo,left,right,0,strong,0.534,102.9,98.6,0.2,98.85,0.016666666666666666,98.86666666666666,0.03333333333333333,98.9,0.2,99.1,1.3,right,12,0.01778850679511379,easy
p05,1,1,8,go,right,right,1,strong,0.516,104.589,100.4,0.2,100.65,0.016666666666666666,100.66666666666667,0.03333333333333333,100.7,0.2,100.9,1.3,right,12,0.01786328538400994,easy
p05,1,1,9,nogo,left,NA,1,weak,NA,NA,102.2,0.2,102.45,0.2,102.65,0.03333333333333333,102.68333333333334,0.016666666666666666,102.7,1.3,right,12,0.21334067629777564,easy
p05,1,1,10,go,right,right,1,weak,0.231,108.108,104,0.2,104.25,0.2,104.45,0.03333333333333333,104.48333333333333,0.016666666666666666,104.5,1.3,right,12,0.213355338765723,easy
p05,1,1,11,nogo,left,NA,1,weak,NA,NA,105.8,0.2,106.05,0.2,106.25,0.03333333333333333,106.28333333333333,0.016666666666666666,106.3,1.3,right,12,0.21345005831335584,easy
p05,1,1,12,go,right,right,1,weak,0.267,111.949,107.6,0.2,107.85,0.2,108.05,0.03333333333333333,108.08333333333333,0.016666666666666666,108.1,1.3,right,12,0.21337821221641207,easy
p05,1,1,13,nogo,left,NA,1,weak,NA,NA,109.4,0.2,109.65,0.2,109.85,0.03333333333333333,109.88333333333334,0.016666666666666666,109.9,1.3,right,12,0.21326736395531043,easy
p05,1,1,15,nogo,left,NA,1,weak,NA,NA,114.8,0.2,115.05,0.2,115.25,0.03333333333333333,115.28333333333333,0.016666666666666666,115.3,1.3,right,12,0.21316384692727297,easy
p05,1,1,16,go,right,right,1,strong,0.765,121.798,116.6,0.2,116.85,0.016666666666666666,116.86666666666666,0.03333333333333333,116.9,0.2,117.1,1.3,right,12,0.01787648160552635,easy
p05,1,1,17,nogo,left,right,0,strong,0.516,123.255,118.4,0.2,118.65,0.016666666666666666,118.66666666666667,0.03333333333333333,118.7,0.2,118.9,1.3,right,12,0.017812846492233803,easy
p05,1,1,18,nogo,left,NA,1,weak,NA,NA,120.2,0.2,120.45,0.2,120.65,0.03333333333333333,120.68333333333334,0.016666666666666666,120.7,1.3,right,12,0.2132858386648877,easy
p05,1,1,19,go,right,right,1,strong,0.409,126.758,122,0.2,122.25,0.016666666666666666,122.26666666666667,0.03333333333333333,122.3,0.2,122.5,1.3,right,12,0.017747158633028448,easy
p05,1,1,20,go,right,right,1,strong,0.605,128.66,123.8,0.2,124.05,0.016666666666666666,124.06666666666666,0.03333333333333333,124.1,0.2,124.3,1.3,right,12,0.01782340346926503,easy
p05,1,1,21,catch,NA,right,1,catch,0.552,130.26,125.6,0.2,125.85,0.0,125.85,0.0,125.85,0.25,126.1,1.3,right,12,1.9061209059145767e-5,easy
p05,1,1,22,go,right,right,1,weak,0.267,131.878,127.4,0.2,127.65,0.2,127.85,0.03333333333333333,127.88333333333334,0.016666666666666666,127.9,1.3,right,12,0.21326296521419863,easy
p05,1,1,23,go,right,right,1,weak,0.338,133.851,129.2,0.2,129.45,0.2,129.65,0.03333333333333333,129.68333333333334,0.016666666666666666,129.7,1.3,right,12,0.2134999107056501,easy
p05,1,1,24,go,right,right,1,strong,0.605,135.825,131,0.2,131.25,0.016666666666666666,131.26666666666668,0.03333333333333333,131.3,0.2,131.5,1.3,right,12,0.01783923893526662,easy
p05,1,1,25,go,right,right,1,weak,0.285,137.407,132.8,0.2,133.05,0.2,133.25,0.03333333333333333,133.28333333333333,0.016666666666666666,133.3,1.3,right,12,0.21335416576857824,easy
p05,1,1,26,go,right,right,1,strong,0.48,139.309,134.6,0.2,134.85,0.016666666666666666,134.86666666666667,0.03333333333333333,134.9,0.2,135.1,1.3,right,12,0.017848622916062595,easy
p05,1,1,28,nogo,left,right,0,strong,0.498,142.954,138.2,0.2,138.45,0.016666666666666666,138.46666666666667,0.03333333333333333,138.5,0.2,138.7,1.3,right,12,0.017720472940709442,easy
p05,1,1,29,catch,NA,right,1,catch,0.516,144.625,140,0.2,140.25,0.0,140.25,0.0,140.25,0.25,140.5,1.3,right,12,1.8181461200583726e-5,easy
p05,1,1,30,catch,NA,right,1,catch,0.463,146.225,141.8,0.2,142.05,0.0,142.05,0.0,142.05,0.25,142.3,1.3,right,12,2.0527456399577204e-5,easy
p05,1,1,32,nogo,left,right,0,strong,0.427,151.736,147.2,0.2,147.45,0.016666666666666666,147.46666666666667,0.03333333333333333,147.5,0.2,147.7,1.3,right,12,0.017748331631082692,easy
p05,1,1,33,nogo,left,NA,1,weak,NA,NA,149,0.2,149.25,0.2,149.45,0.03333333333333333,149.48333333333332,0.016666666666666666,149.5,1.3,right,12,0.21333158556717535,easy
p05,1,1,34,catch,NA,right,1,catch,0.374,155.238,150.8,0.2,151.05,0.0,151.05,0.0,151.05,0.25,151.3,1.3,right,12,1.9647708541015163e-5,easy
p05,1,1,36,nogo,left,right,0,strong,0.427,158.918,154.4,0.2,154.65,0.016666666666666666,154.66666666666666,0.03333333333333333,154.7,0.2,154.9,1.3,right,12,0.01770317122736742,easy
p05,1,1,37,nogo,left,right,0,strong,0.374,160.571,156.2,0.2,156.45,0.016666666666666666,156.46666666666667,0.03333333333333333,156.5,0.2,156.7,1.3,right,12,0.01775800886025536,easy
p05,1,1,38,go,right,right,1,strong,0.587,162.491,158,0.2,158.25,0.016666666666666666,158.26666666666668,0.03333333333333333,158.3,0.2,158.5,1.3,right,12,0.017812846493143297,easy
p05,1,1,39,nogo,left,right,0,strong,0.48,164.091,159.8,0.2,160.05,0.016666666666666666,160.06666666666666,0.03333333333333333,160.1,0.2,160.3,1.3,right,12,0.017681177524536906,easy
p05,1,1,40,go,right,right,1,strong,0.428,165.745,161.6,0.2,161.85,0.016666666666666666,161.86666666666667,0.03333333333333333,161.9,0.2,162.1,1.3,right,12,0.017747158633937943,easy
p05,1,1,41,go,right,right,1,weak,0.231,167.452,163.4,0.2,163.65,0.2,163.85,0.03333333333333333,163.88333333333333,0.016666666666666666,163.9,1.3,right,12,0.21337439997478214,easy
p05,1,1,1,nogo,left,right,0,strong,0.498,173.692,167.4,0.2,167.65,0.016666666666666666,167.66666666666666,0.03333333333333333,167.7,0.2,167.9,1.3,right,12,0.01778557430134242,easy
p05,1,1,2,go,right,right,1,weak,0.196,175.292,169.2,0.2,169.45,0.2,169.65,0.03333333333333333,169.68333333333334,0.016666666666666666,169.7,1.3,right,12,0.2134175076325846,easy
p05,1,1,3,nogo,left,NA,1,weak,NA,NA,171,0.2,171.25,0.2,171.45,0.03333333333333333,171.48333333333332,0.016666666666666666,171.5,1.3,right,12,0.21332748007534974,easy
p05,1,1,4,nogo,left,NA,1,weak,NA,NA,172.8,0.2,173.05,0.2,173.25,0.03333333333333333,173.28333333333333,0.016666666666666666,173.3,1.3,right,12,0.21344184732970461,easy
p05,1,1,5,nogo,left,right,0,strong,0.463,181.069,174.6,0.2,174.85,0.016666666666666666,174.86666666666667,0.03333333333333333,174.9,0.2,175.1,1.3,right,12,0.017772964578398387,easy
p05,1,1,6,go,right,right,1,strong,0.445,182.758,176.4,0.2,176.65,0.016666666666666666,176.66666666666666,0.03333333333333333,176.7,0.2,176.9,1.3,right,12,0.01775888860811392,easy
p05,1,1,7,go,right,right,1,weak,0.32,184.536,178.2,0.2,178.45,0.2,178.65,0.03333333333333333,178.68333333333334,0.016666666666666666,178.7,1.3,right,12,0.21330519312323304,easy
p05,1,1,8,nogo,left,NA,1,weak,NA,NA,180,0.2,180.25,0.2,180.45,0.03333333333333333,180.48333333333332,0.016666666666666666,180.5,1.3,right,12,0.21324625000033848,easy
p05,1,1,9,nogo,left,right,0,strong,0.409,188.234,181.8,0.2,182.05,0.016666666666666666,182.06666666666666,0.03333333333333333,182.1,0.2,182.3,1.3,right,12,0.01776240760136716,easy
p05,1,1,10,nogo,left,NA,1,weak,NA,NA,183.6,0.2,183.85,0.2,184.05,0.03333333333333333,184.08333333333334,0.016666666666666666,184.1,1.3,right,12,0.21323803901850624,easy
p05,1,1,11,go,right,right,1,strong,0.409,191.843,185.4,0.2,185.65,0.016666666666666666,185.66666666666666,0.03333333333333333,185.7,0.2,185.9,1.3,right,12,0.017814019489378552,easy
p05,1,1,12,nogo,left,NA,1,weak,NA,NA,187.2,0.2,187.45,0.2,187.65,0.03333333333333333,187.68333333333334,0.016666666666666666,187.7,1.3,right,12,0.21330255387965735,easy
p05,1,1,14,go,right,right,1,weak,0.249,197.408,190.8,0.2,191.05,0.2,191.25,0.03333333333333333,191.28333333333333,0.016666666666666666,191.3,1.3,right,12,0.21328495891702914,easy
p05,1,1,15,go,right,right,1,weak,0.16,199.221,192.6,0.2,192.85,0.2,193.05,0.03333333333333333,193.08333333333334,0.016666666666666666,193.1,1.3,right,12,0.21322630904342077,easy
p05,1,1,17,go,right,right,1,weak,0.232,203.114,196.2,0.2,196.45,0.2,196.65,0.03333333333333333,196.68333333333334,0.016666666666666666,196.7,1.3,right,12,0.21329404964762944,easy
p05,1,1,18,nogo,left,right,0,strong,0.48,205.07,198,0.2,198.25,0.016666666666666666,198.26666666666668,0.03333333333333333,198.3,0.2,198.5,1.3,right,12,0.017823110219978844,easy
p05,1,1,19,nogo,left,NA,1,weak,NA,NA,199.8,0.2,200.05,0.2,200.25,0.03333333333333333,200.28333333333333,0.016666666666666666,200.3,1.3,right,12,0.21328407916917058,easy
p05,1,1,20,go,right,right,1,strong,0.409,208.608,201.6,0.2,201.85,0.016666666666666666,201.86666666666667,0.03333333333333333,201.9,0.2,202.1,1.3,right,12,0.017700531983791734,easy
p05,1,1,21,go,right,right,1,weak,0.214,210.315,203.4,0.2,203.65,0.2,203.85,0.03333333333333333,203.88333333333333,0.016666666666666666,203.9,1.3,right,12,0.2133837839555781,easy
p05,1,1,22,go,right,right,1,weak,0.249,212.252,205.2,0.2,205.45,0.2,205.65,0.03333333333333333,205.68333333333334,0.016666666666666666,205.7,1.3,right,12,0.21330079438303073,easy
p05,1,1,23,nogo,left,right,0,strong,0.463,214.172,207,0.2,207.25,0.016666666666666666,207.26666666666668,0.03333333333333333,207.3,0.2,207.5,1.3,right,12,0.017933665232703788,easy
p05,1,1,24,go,right,right,1,strong,0.427,215.843,208.8,0.2,209.05,0.016666666666666666,209.06666666666666,0.03333333333333333,209.1,0.2,209.3,1.3,right,12,0.01757502125292376,easy
p05,1,1,26,go,right,right,1,weak,0.178,219.417,212.4,0.2,212.65,0.2,212.85,0.03333333333333333,212.88333333333333,0.016666666666666666,212.9,1.3,right,12,0.21330050113374455,easy
p05,1,1,27,nogo,left,right,0,strong,0.48,221.426,214.2,0.2,214.45,0.016666666666666666,214.46666666666667,0.03333333333333333,214.5,0.2,214.7,1.3,right,12,0.017760941354026727,easy
p05,1,1,28,nogo,left,NA,1,weak,NA,NA,216,0.2,216.25,0.2,216.45,0.03333333333333333,216.48333333333332,0.016666666666666666,216.5,1.3,right,12,0.21342278612064547,easy
p05,1,1,30,catch,NA,right,1,catch,0.374,226.795,219.6,0.2,219.85,0.0,219.85,0.0,219.85,0.25,220.1,1.3,right,12,1.964770763152046e-5,easy
p05,1,1,32,catch,NA,right,1,catch,0.445,230.439,223.2,0.2,223.45,0.0,223.45,0.0,223.45,0.25,223.7,1.3,right,12,1.9061209059145767e-5,easy
p05,1,1,33,nogo,left,NA,1,weak,NA,NA,225,0.2,225.25,0.2,225.45,0.03333333333333333,225.48333333333332,0.016666666666666666,225.5,1.3,right,12,0.21334976702746644,easy
p05,1,1,34,catch,NA,right,1,catch,0.321,233.87,226.8,0.2,227.05,0.0,227.05,0.0,227.05,0.25,227.3,1.3,right,12,1.9354458345333114e-5,easy
p05,1,1,36,nogo,left,right,0,strong,0.392,237.568,230.4,0.2,230.65,0.016666666666666666,230.66666666666666,0.03333333333333333,230.7,0.2,230.9,1.3,right,12,0.017848329665866913,easy
p05,1,1,37,go,right,right,1,strong,0.392,239.275,232.2,0.2,232.45,0.016666666666666666,232.46666666666667,0.03333333333333333,232.5,0.2,232.7,1.3,right,12,0.017789093293686165,easy
p05,1,1,39,go,right,right,1,strong,0.392,242.902,235.8,0.2,236.05,0.016666666666666666,236.06666666666666,0.03333333333333333,236.1,0.2,236.3,1.3,right,12,0.018044220245428733,easy
p05,1,1,41,go,right,right,1,strong,0.409,248.466,241.2,0.2,241.45,0.016666666666666666,241.46666666666667,0.03333333333333333,241.5,0.2,241.7,1.3,right,12,0.017756542612914927,easy
p05,1,1,42,catch,NA,right,1,catch,0.427,250.137,243,0.2,243.25,0.0,243.25,0.0,243.25,0.25,243.5,1.3,right,12,1.964770763152046e-5,easy
p05,1,1,43,go,right,right,1,strong,0.409,251.826,244.8,0.2,245.05,0.016666666666666666,245.06666666666666,0.03333333333333333,245.1,0.2,245.3,1.3,right,12,0.017758302109541546,easy
p05,1,1,44,nogo,left,right,0,strong,0.409,253.533,246.6,0.2,246.85,0.016666666666666666,246.86666666666667,0.03333333333333333,246.9,0.2,247.1,1.3,right,12,0.017771205081771768,easy
p05,1,1,1,catch,NA,right,1,catch,0.463,261.64,252.6,0.2,252.85,0.0,252.85,0.0,252.85,0.25,253.1,1.3,right,12,1.8474710486771073e-5,easy
p05,1,1,2,nogo,left,NA,1,weak,NA,NA,254.4,0.2,254.65,0.2,254.85,0.03333333333333333,254.88333333333333,0.016666666666666666,254.9,1.3,right,12,0.21335328602071968,easy
p05,1,1,3,nogo,left,NA,1,weak,NA,NA,256.2,0.2,256.45,0.2,256.65,0.03333333333333333,256.68333333333334,0.016666666666666666,256.7,1.3,right,12,0.21325504748165258,easy
p05,1,1,4,go,right,right,1,weak,0.196,267.08,258,0.2,258.25,0.2,258.45,0.03333333333333333,258.48333333333335,0.016666666666666666,258.5,1.3,right,12,0.21329551589406037,easy
p05,1,1,5,go,right,right,1,weak,0.232,269.017,259.8,0.2,260.05,0.2,260.25,0.03333333333333333,260.28333333333336,0.016666666666666666,260.3,1.3,right,12,0.21325064874054078,easy
p05,1,1,6,nogo,left,NA,1,weak,NA,NA,261.6,0.2,261.85,0.2,262.05,0.03333333333333333,262.0833333333333,0.016666666666666666,262.1,1.3,right,12,0.21331750959780038,easy
p05,1,1,7,go,right,right,1,weak,0.16,272.751,263.4,0.2,263.65,0.2,263.85,0.03333333333333333,263.8833333333333,0.016666666666666666,263.9,1.3,right,12,0.21330724586914585,easy
p05,1,1,8,go,right,right,1,strong,0.569,274.866,265.2,0.2,265.45,0.016666666666666666,265.46666666666664,0.03333333333333333,265.5,0.2,265.7,1.3,right,12,0.01776885908748227,easy
p05,1,1,9,go,right,right,1,strong,0.48,276.484,267,0.2,267.25,0.016666666666666666,267.26666666666665,0.03333333333333333,267.3,0.2,267.5,1.3,right,12,0.017941876214536023,easy
p05,1,1,10,go,right,right,1,weak,0.267,278.173,268.8,0.2,269.05,0.2,269.25,0.03333333333333333,269.28333333333336,0.016666666666666666,269.3,1.3,right,12,0.21325094198982697,easy
p05,1,1,11,go,right,right,1,strong,0.623,280.235,270.6,0.2,270.85,0.016666666666666666,270.8666666666667,0.03333333333333333,270.9,0.2,271.1,1.3,right,12,0.017718713444992318,easy
p05,1,1,12,nogo,left,right,0,strong,0.534,281.853,272.4,0.2,272.65,0.016666666666666666,272.6666666666667,0.03333333333333333,272.7,0.2,272.9,1.3,right,12,0.017814019490288047,easy
p05,1,1,13,nogo,left,NA,1,weak,NA,NA,274.2,0.2,274.45,0.2,274.65,0.03333333333333333,274.68333333333334,0.016666666666666666,274.7,1.3,right,12,0.2133550455164368,easy
p05,1,1,15,nogo,left,NA,1,weak,NA,NA,279.6,0.2,279.85,0.2,280.05,0.03333333333333333,280.0833333333333,0.016666666666666666,280.1,1.3,right,12,0.21341340214166848,easy
p05,1,1,17,nogo,left,NA,1,weak,NA,NA,283.2,0.2,283.45,0.2,283.65,0.03333333333333333,283.68333333333334,0.016666666666666666,283.7,1.3,right,12,0.21331193785863434,easy
p05,1,1,18,nogo,left,right,0,strong,0.392,294.884,285,0.2,285.25,0.016666666666666666,285.26666666666665,0.03333333333333333,285.3,0.2,285.5,1.3,right,12,0.017919589263328817,easy
p05,1,1,19,nogo,left,right,0,strong,0.374,296.573,286.8,0.2,287.05,0.016666666666666666,287.06666666666666,0.03333333333333333,287.1,0.2,287.3,1.3,right,12,0.01788762508203945,easy
p05,1,1,20,go,right,right,1,weak,0.249,298.351,288.6,0.2,288.85,0.2,289.05,0.03333333333333333,289.0833333333333,0.016666666666666666,289.1,1.3,right,12,0.21341868063063885,easy
p05,1,1,22,go,right,right,1,strong,0.498,302.227,292.2,0.2,292.45,0.016666666666666666,292.46666666666664,0.03333333333333333,292.5,0.2,292.7,1.3,right,12,0.01769173450247763,easy
p05,1,1,24,nogo,left,NA,1,weak,NA,NA,297.6,0.2,297.85,0.2,298.05,0.03333333333333333,298.0833333333333,0.016666666666666666,298.1,1.3,right,12,0.21327293569356698,easy
p05,1,1,25,catch,NA,right,1,catch,0.391,309.516,299.4,0.2,299.65,0.0,299.65,0.0,299.65,0.25,299.9,1.3,right,12,1.9061209059145767e-5,easy
p05,1,1,26,go,right,right,1,strong,0.409,311.24,301.2,0.2,301.45,0.016666666666666666,301.46666666666664,0.03333333333333333,301.5,0.2,301.7,1.3,right,12,0.01778586755062861,easy
p05,1,1,28,go,right,right,1,strong,0.392,314.849,304.8,0.2,305.05,0.016666666666666666,305.06666666666666,0.03333333333333333,305.1,0.2,305.3,1.3,right,12,0.01775361011914356,easy
p05,1,1,29,catch,NA,right,1,catch,0.409,316.52,306.6,0.2,306.85,0.0,306.85,0.0,306.85,0.25,307.1,1.3,right,12,2.0527456399577204e-5,easy
p05,1,1,31,go,right,right,1,weak,0.143,320.076,310.2,0.2,310.45,0.2,310.65,0.03333333333333333,310.68333333333334,0.016666666666666666,310.7,1.3,right,12,0.21344917856458778,easy
p05,1,1,32,nogo,left,right,0,strong,0.356,321.996,312,0.2,312.25,0.016666666666666666,312.26666666666665,0.03333333333333333,312.3,0.2,312.5,1.3,right,12,0.017743932889970893,easy
p05,1,1,33,catch,NA,right,1,catch,0.374,323.667,313.8,0.2,314.05,0.0,314.05,0.0,314.05,0.25,314.3,1.3,right,12,1.876795886346372e-5,easy
p05,1,1,34,nogo,left,right,0,strong,0.374,325.374,315.6,0.2,315.85,0.016666666666666666,315.8666666666667,0.03333333333333333,315.9,0.2,316.1,1.3,right,12,0.01781988447692129,easy
p05,1,1,36,nogo,left,NA,1,weak,NA,NA,319.2,0.2,319.45,0.2,319.65,0.03333333333333333,319.68333333333334,0.016666666666666666,319.7,1.3,right,12,0.21336736199009465,easy
p05,1,1,37,go,right,right,1,weak,0.32,331.045,321,0.2,321.25,0.2,321.45,0.03333333333333333,321.48333333333335,0.016666666666666666,321.5,1.3,right,12,0.21332572057963262,easy
p05,1,1,38,nogo,left,right,0,strong,0.516,332.947,322.8,0.2,323.05,0.016666666666666666,323.06666666666666,0.03333333333333333,323.1,0.2,323.3,1.3,right,12,0.01778029581237206,easy
p05,1,1,39,go,right,right,1,strong,0.427,334.565,324.6,0.2,324.85,0.016666666666666666,324.8666666666667,0.03333333333333333,324.9,0.2,325.1,1.3,right,12,0.017834253696491942,easy
p05,1,1,40,nogo,left,right,0,strong,0.463,336.307,326.4,0.2,326.65,0.016666666666666666,326.6666666666667,0.03333333333333333,326.7,0.2,326.9,1.3,right,12,0.01768674926370295,easy
p05,1,1,41,go,right,right,1,strong,0.445,337.996,328.2,0.2,328.45,0.016666666666666666,328.46666666666664,0.03333333333333333,328.5,0.2,328.7,1.3,right,12,0.017638069867643935,easy
p05,1,1,42,go,right,right,1,weak,0.338,339.792,330,0.2,330.25,0.2,330.45,0.03333333333333333,330.48333333333335,0.016666666666666666,330.5,1.3,right,12,0.21348084949659096,easy
p05,1,1,43,nogo,left,right,0,strong,0.463,341.623,331.8,0.2,332.05,0.016666666666666666,332.06666666666666,0.03333333333333333,332.1,0.2,332.3,1.3,right,12,0.017860939388810948,easy
p05,1,2,1,go,right,right,1,weak,0.658,1.173,0,0.2,0.25,0.2,0.45,0.03333333333333333,0.48333333333333334,0.016666666666666666,0.5,1.3,right,12,0.21338818269578042,easy
p05,1,2,2,catch,NA,right,1,catch,0.534,2.702,1.8,0.2,2.05,0.0,2.05,0.0,2.05,0.25,2.3,1.3,right,12,1.788821191439638e-5,easy
p05,1,2,3,go,right,right,1,strong,0.392,4.266,3.6,0.2,3.85,0.016666666666666666,3.8666666666666667,0.03333333333333333,3.9,0.2,4.1,1.3,right,12,0.017901407802128233,easy
p05,1,2,4,go,right,right,1,strong,0.463,6.044,5.4,0.2,5.65,0.016666666666666666,5.666666666666667,0.03333333333333333,5.7,0.2,5.9,1.3,right,12,0.017910498532728525,easy
p05,1,2,5,nogo,left,NA,1,weak,NA,NA,7.2,0.2,7.45,0.2,7.65,0.03333333333333333,7.683333333333334,0.016666666666666666,7.7,1.3,right,12,0.21332249483657506,easy
p05,1,2,6,go,right,right,1,weak,0.214,9.6,9,0.2,9.25,0.2,9.45,0.03333333333333333,9.483333333333333,0.016666666666666666,9.5,1.3,right,12,0.21340958989912906,easy
p05,1,2,8,nogo,left,right,0,strong,0.463,13.475,12.6,0.2,12.85,0.016666666666666666,12.866666666666667,0.03333333333333333,12.9,0.2,13.1,1.3,right,12,0.0176477470968166,easy
p05,1,2,10,nogo,left,NA,1,weak,NA,NA,16.2,0.2,16.45,0.2,16.65,0.03333333333333333,16.683333333333334,0.016666666666666666,16.7,1.3,right,12,0.21335475226715062,easy
p05,1,2,12,go,right,right,1,weak,0.214,20.871,19.8,0.2,20.05,0.2,20.25,0.03333333333333333,20.283333333333335,0.016666666666666666,20.3,1.3,right,12,0.21334126279634802,easy
p05,1,2,13,go,right,right,1,strong,0.445,22.809,21.6,0.2,21.85,0.016666666666666666,21.866666666666667,0.03333333333333333,21.9,0.2,22.1,1.3,right,12,0.017810207247748622,easy
p05,1,2,14,go,right,right,1,weak,0.214,24.48,23.4,0.2,23.65,0.2,23.85,0.03333333333333333,23.883333333333333,0.016666666666666666,23.9,1.3,right,12,0.21327821418162785,easy
p05,1,2,15,go,right,right,1,weak,0.249,26.418,25.2,0.2,25.45,0.2,25.65,0.03333333333333333,25.683333333333334,0.016666666666666666,25.7,1.3,right,12,0.213404018161782,easy
p05,1,2,16,go,right,right,1,weak,0.196,28.267,27,0.2,27.25,0.2,27.45,0.03333333333333333,27.483333333333334,0.016666666666666666,27.5,1.3,right,12,0.21340753715412575,easy
p05,1,2,17,nogo,left,right,0,strong,0.534,30.311,28.8,0.2,29.05,0.016666666666666666,29.066666666666666,0.03333333333333333,29.1,0.2,29.3,1.3,right,12,0.01773777465314197,easy
p05,1,2,18,nogo,left,NA,1,weak,NA,NA,30.6,0.2,30.85,0.2,31.05,0.03333333333333333,31.083333333333332,0.016666666666666666,31.1,1.3,right,12,0.21324888924482366,easy
p05,1,2,19,go,right,right,1,strong,0.463,33.849,32.4,0.2,32.65,0.016666666666666666,32.666666666666664,0.03333333333333333,32.7,0.2,32.9,1.3,right,12,0.017826335963945894,easy
p05,1,2,20,nogo,left,right,0,strong,0.516,35.609,34.2,0.2,34.45,0.016666666666666666,34.46666666666667,0.03333333333333333,34.5,0.2,34.7,1.3,right,12,0.01778293505685724,easy
p05,1,2,21,nogo,left,NA,1,weak,NA,NA,36,0.2,36.25,0.2,36.45,0.03333333333333333,36.483333333333334,0.016666666666666666,36.5,1.3,right,12,0.21334302229206514,easy
p05,1,2,22,nogo,left,right,0,strong,0.392,39.093,37.8,0.2,38.05,0.016666666666666666,38.06666666666667,0.03333333333333333,38.1,0.2,38.3,1.3,right,12,0.017769152336768457,easy
p05,1,2,24,nogo,left,NA,1,weak,NA,NA,41.4,0.2,41.65,0.2,41.85,0.03333333333333333,41.88333333333333,0.016666666666666666,41.9,1.3,right,12,0.21328877115956857,easy
p05,1,2,26,nogo,left,NA,1,weak,NA,NA,45,0.2,45.25,0.2,45.45,0.03333333333333333,45.483333333333334,0.016666666666666666,45.5,1.3,right,12,0.2133793852144663,easy
p05,1,2,27,go,right,right,1,weak,0.178,48.427,46.8,0.2,47.05,0.2,47.25,0.03333333333333333,47.28333333333333,0.016666666666666666,47.3,1.3,right,12,0.21338437045415048,easy
p05,1,2,28,nogo,left,NA,1,weak,NA,NA,48.6,0.2,48.85,0.2,49.05,0.03333333333333333,49.083333333333336,0.016666666666666666,49.1,1.3,right,12,0.21333011932074442,easy
p05,1,2,29,go,right,right,1,strong,0.374,52.231,50.4,0.2,50.65,0.016666666666666666,50.666666666666664,0.03333333333333333,50.7,0.2,50.9,1.3,right,12,0.01768997500585101,easy
p05,1,2,30,catch,NA,right,1,catch,0.445,53.956,52.2,0.2,52.45,0.0,52.45,0.0,52.45,0.25,52.7,1.3,right,12,1.7008463146339636e-5,easy
p05,1,2,31,catch,NA,right,1,catch,0.463,55.627,54,0.2,54.25,0.0,54.25,0.0,54.25,0.25,54.5,1.3,right,12,1.7301712432526983e-5,easy
p05,1,2,32,go,right,right,1,weak,0.214,57.28,55.8,0.2,56.05,0.2,56.25,0.03333333333333333,56.28333333333333,0.016666666666666666,56.3,1.3,right,12,0.21332190833800269,easy
p05,1,2,34,nogo,left,right,0,strong,0.48,61.174,59.4,0.2,59.65,0.016666666666666666,59.666666666666664,0.03333333333333333,59.7,0.2,59.9,1.3,right,12,0.01775302362148068,easy
p05,1,2,35,go,right,right,1,strong,0.427,62.827,61.2,0.2,61.45,0.016666666666666666,61.46666666666667,0.03333333333333333,61.5,0.2,61.7,1.3,right,12,0.01778146880951681,easy
p05,1,2,37,nogo,left,NA,1,weak,NA,NA,64.8,0.2,65.05,0.2,65.25,0.03333333333333333,65.28333333333333,0.016666666666666666,65.3,1.3,right,12,0.21326179221705388,easy
p05,1,2,38,go,right,right,1,strong,0.356,68.285,66.6,0.2,66.85,0.016666666666666666,66.86666666666666,0.03333333333333333,66.9,0.2,67.1,1.3,right,12,0.017780589061658247,easy
p05,1,2,39,nogo,left,right,0,strong,0.48,70.116,68.4,0.2,68.65,0.016666666666666666,68.66666666666667,0.03333333333333333,68.7,0.2,68.9,1.3,right,12,0.01778528105114674,easy
p05,1,2,41,go,right,right,1,strong,0.427,73.689,72,0.2,72.25,0.016666666666666666,72.26666666666667,0.03333333333333333,72.3,0.2,72.5,1.3,right,12,0.017821350723352225,easy
p05,1,2,43,nogo,left,right,0,strong,0.356,77.245,75.6,0.2,75.85,0.016666666666666666,75.86666666666666,0.03333333333333333,75.9,0.2,76.1,1.3,right,12,0.0177392409004824,easy
p05,1,2,44,catch,NA,right,1,catch,0.392,78.934,77.4,0.2,77.65,0.0,77.65,0.0,77.65,0.25,77.9,1.3,right,12,1.7008463146339636e-5,easy
p05,1,2,45,nogo,left,right,0,strong,0.374,80.623,79.2,0.2,79.45,0.016666666666666666,79.46666666666667,0.03333333333333333,79.5,0.2,79.7,1.3,right,12,0.017846863418526482,easy
p05,1,2,1,go,right,right,1,weak,0.178,86.596,83.2,0.2,83.45,0.2,83.65,0.03333333333333333,83.68333333333334,0.016666666666666666,83.7,1.3,right,12,0.21324537025247992,easy
p05,1,2,3,nogo,left,right,0,strong,0.427,90.472,86.8,0.2,87.05,0.016666666666666666,87.06666666666666,0.03333333333333333,87.1,0.2,87.3,1.3,right,12,0.017771791580344143,easy
p05,1,2,4,nogo,left,right,0,strong,0.445,92.196,88.6,0.2,88.85,0.016666666666666666,88.86666666666666,0.03333333333333333,88.9,0.2,89.1,1.3,right,12,0.017811380245802866,easy
p05,1,2,5,go,right,right,1,strong,0.392,93.85,90.4,0.2,90.65,0.016666666666666666,90.66666666666667,0.03333333333333333,90.7,0.2,90.9,1.3,right,12,0.01776885908748227,easy
p05,1,2,6,nogo,left,NA,1,weak,NA,NA,92.2,0.2,92.45,0.2,92.65,0.03333333333333333,92.68333333333334,0.016666666666666666,92.7,1.3,right,12,0.21338935569383466,easy
p05,1,2,7,nogo,left,NA,1,weak,NA,NA,94,0.2,94.25,0.2,94.45,0.03333333333333333,94.48333333333333,0.016666666666666666,94.5,1.3,right,12,0.2132524082371674,easy
p05,1,2,8,nogo,left,right,0,strong,0.445,99.414,95.8,0.2,96.05,0.016666666666666666,96.06666666666666,0.03333333333333333,96.1,0.2,96.3,1.3,right,12,0.01780287601377495,easy
p05,1,2,10,go,right,right,1,weak,0.214,104.925,101.2,0.2,101.45,0.2,101.65,0.03333333333333333,101.68333333333334,0.016666666666666666,101.7,1.3,right,12,0.21338261095752387,easy
p05,1,2,12,go,right,right,1,strong,0.427,108.765,104.8,0.2,105.05,0.016666666666666666,105.06666666666666,0.03333333333333333,105.1,0.2,105.3,1.3,right,12,0.01767707203362079,easy
p05,1,2,13,go,right,right,1,weak,0.232,110.472,106.6,0.2,106.85,0.2,107.05,0.03333333333333333,107.08333333333333,0.016666666666666666,107.1,1.3,right,12,0.2133084188662906,easy
p05,1,2,14,nogo,left,right,0,strong,0.534,112.481,108.4,0.2,108.65,0.016666666666666666,108.66666666666667,0.03333333333333333,108.7,0.2,108.9,1.3,right,12,0.01781196674437524,easy
p05,1,2,15,go,right,right,1,strong,0.427,114.081,110.2,0.2,110.45,0.016666666666666666,110.46666666666667,0.03333333333333333,110.5,0.2,110.7,1.3,right,12,0.017881173595924338,easy
p05,1,2,16,go,right,right,1,strong,0.427,115.788,112,0.2,112.25,0.016666666666666666,112.26666666666667,0.03333333333333333,112.3,0.2,112.5,1.3,right,12,0.017764753595656657,easy
p05,1,2,17,nogo,left,NA,1,weak,NA,NA,113.8,0.2,114.05,0.2,114.25,0.03333333333333333,114.28333333333333,0.016666666666666666,114.3,1.3,right,12,0.21337997171303869,easy
p05,1,2,18,go,right,right,1,weak,0.125,119.29,115.6,0.2,115.85,0.2,116.05,0.03333333333333333,116.08333333333333,0.016666666666666666,116.1,1.3,right,12,0.21331575010117376,easy
p05,1,2,19,nogo,left,NA,1,weak,NA,NA,117.4,0.2,117.65,0.2,117.85,0.03333333333333333,117.88333333333334,0.016666666666666666,117.9,1.3,right,12,0.21309464007572387,easy
p05,1,2,21,go,right,right,1,strong,0.445,127.059,122.8,0.2,123.05,0.016666666666666666,123.06666666666666,0.03333333333333333,123.1,0.2,123.3,1.3,right,12,0.017797011027141707,easy
p05,1,2,22,go,right,right,1,strong,0.356,128.677,124.6,0.2,124.85,0.016666666666666666,124.86666666666666,0.03333333333333333,124.9,0.2,125.1,1.3,right,12,0.017747158633028448,easy
p05,1,2,23,nogo,left,NA,1,weak,NA,NA,126.4,0.2,126.65,0.2,126.85,0.03333333333333333,126.88333333333334,0.016666666666666666,126.9,1.3,right,12,0.21327117619694036,easy
p05,1,2,24,nogo,left,NA,1,weak,NA,NA,128.2,0.2,128.45,0.2,128.65,0.03333333333333333,128.68333333333334,0.016666666666666666,128.7,1.3,right,12,0.21335211302266543,easy
p05,1,2,25,nogo,left,NA,1,weak,NA,NA,130,0.2,130.25,0.2,130.45,0.03333333333333333,130.48333333333332,0.016666666666666666,130.5,1.3,right,12,0.21323627952187962,easy
p05,1,2,26,go,right,right,1,weak,0.285,136.215,131.8,0.2,132.05,0.2,132.25,0.03333333333333333,132.28333333333333,0.016666666666666666,132.3,1.3,right,12,0.21332190833800269,easy
p05,1,2,27,catch,NA,right,1,catch,0.427,138.01,133.6,0.2,133.85,0.0,133.85,0.0,133.85,0.25,134.1,1.3,right,12,1.7008463146339636e-5,easy
p05,1,2,28,nogo,left,right,0,strong,0.534,139.823,135.4,0.2,135.65,0.016666666666666666,135.66666666666666,0.03333333333333333,135.7,0.2,135.9,1.3,right,12,0.017798477273572644,easy
p05,1,2,29,go,right,right,1,strong,0.463,141.459,137.2,0.2,137.45,0.016666666666666666,137.46666666666667,0.03333333333333333,137.5,0.2,137.7,1.3,right,12,0.01786621787778131,easy
p05,1,2,30,go,right,right,1,weak,0.409,143.308,139,0.2,139.25,0.2,139.45,0.03333333333333333,139.48333333333332,0.016666666666666666,139.5,1.3,right,12,0.2133125243581162,easy
p05,1,2,31,go,right,right,1,weak,0.374,145.175,140.8,0.2,141.05,0.2,141.25,0.03333333333333333,141.28333333333333,0.016666666666666666,141.3,1.3,right,12,0.21322660229270696,easy
p05,1,2,32,go,right,right,1,strong,0.392,146.899,142.6,0.2,142.85,0.016666666666666666,142.86666666666667,0.03333333333333333,142.9,0.2,143.1,1.3,right,12,0.017748331631082692,easy
p05,1,2,33,nogo,left,NA,1,weak,NA,NA,144.4,0.2,144.65,0.2,144.85,0.03333333333333333,144.88333333333333,0.016666666666666666,144.9,1.3,right,12,0.21340988314841525,easy
p05,1,2,34,catch,NA,right,1,catch,0.374,150.437,146.2,0.2,146.45,0.0,146.45,0.0,146.45,0.25,146.7,1.3,right,12,1.6128715287777595e-5,easy
p05,1,2,35,nogo,left,right,0,strong,0.409,152.179,148,0.2,148.25,0.016666666666666666,148.26666666666668,0.03333333333333333,148.3,0.2,148.5,1.3,right,12,0.017896422563353553,easy
p05,1,2,37,nogo,left,right,0,strong,0.392,155.788,151.6,0.2,151.85,0.016666666666666666,151.86666666666667,0.03333333333333333,151.9,0.2,152.1,1.3,right,12,0.01783718619026331,easy
p05,1,2,38,catch,NA,right,1,catch,0.409,157.459,153.4,0.2,153.65,0.0,153.65,0.0,153.65,0.25,153.9,1.3,right,12,1.7008463146339636e-5,easy
p05,1,2,40,nogo,left,right,0,strong,0.338,162.935,158.8,0.2,159.05,0.016666666666666666,159.06666666666666,0.03333333333333333,159.1,0.2,159.3,1.3,right,12,0.01774950462822744,easy
p05,1,2,41,go,right,right,1,weak,0.161,164.66,160.6,0.2,160.85,0.2,161.05,0.03333333333333333,161.08333333333334,0.016666666666666666,161.1,1.3,right,12,0.21326765720459662,easy
p05,1,2,42,catch,NA,right,1,catch,0.498,166.651,162.4,0.2,162.65,0.0,162.65,0.0,162.65,0.25,162.9,1.3,right,12,1.7008463146339636e-5,easy
p05,1,2,1,catch,NA,right,1,catch,0.427,173.566,167.4,0.2,167.65,0.0,167.65,0.0,167.65,0.25,167.9,1.3,right,12,1.7301713342021685e-5,easy
p05,1,2,2,go,right,right,1,weak,0.071,175.113,169.2,0.2,169.45,0.2,169.65,0.03333333333333333,169.68333333333334,0.016666666666666666,169.7,1.3,right,12,0.2132990348873136,easy
p05,1,2,3,nogo,left,NA,1,weak,NA,NA,171,0.2,171.25,0.2,171.45,0.03333333333333333,171.48333333333332,0.016666666666666666,171.5,1.3,right,12,0.2133884759441571,easy
p05,1,2,4,go,right,right,1,strong,0.445,179.095,172.8,0.2,173.05,0.016666666666666666,173.06666666666666,0.03333333333333333,173.1,0.2,173.3,1.3,right,12,0.017855367651463894,easy
p05,1,2,5,nogo,left,right,0,strong,0.445,180.802,174.6,0.2,174.85,0.016666666666666666,174.86666666666667,0.03333333333333333,174.9,0.2,175.1,1.3,right,12,0.017745105888025137,easy
p05,1,2,6,nogo,left,right,0,strong,0.481,182.544,176.4,0.2,176.65,0.016666666666666666,176.66666666666666,0.03333333333333333,176.7,0.2,176.9,1.3,right,12,0.01781636548548704,easy
p05,1,2,7,nogo,left,NA,1,weak,NA,NA,178.2,0.2,178.45,0.2,178.65,0.03333333333333333,178.68333333333334,0.016666666666666666,178.7,1.3,right,12,0.21332484083177405,easy
p05,1,2,8,catch,NA,right,1,catch,0.409,186.029,180,0.2,180.25,0.0,180.25,0.0,180.25,0.25,180.5,1.3,right,12,2.2873451598570682e-5,easy
p05,1,2,9,nogo,left,right,0,strong,0.516,187.842,181.8,0.2,182.05,0.016666666666666666,182.06666666666666,0.03333333333333333,182.1,0.2,182.3,1.3,right,12,0.01765243908721459,easy
p05,1,2,10,go,right,right,1,weak,0.552,189.78,183.6,0.2,183.85,0.2,184.05,0.03333333333333333,184.08333333333334,0.016666666666666666,184.1,1.3,right,12,0.21346765327507455,easy
p05,1,2,11,go,right,right,1,weak,0.303,191.433,185.4,0.2,185.65,0.2,185.85,0.03333333333333333,185.88333333333333,0.016666666666666666,185.9,1.3,right,12,0.21339346118475078,easy
p05,1,2,12,catch,NA,right,1,catch,0.623,193.406,187.2,0.2,187.45,0.0,187.45,0.0,187.45,0.25,187.7,1.3,right,12,1.671521386015229e-5,easy
p05,1,2,13,nogo,left,right,0,strong,0.498,194.989,189,0.2,189.25,0.016666666666666666,189.26666666666668,0.03333333333333333,189.3,0.2,189.5,1.3,right,12,0.017801409766434517,easy
p05,1,2,14,nogo,left,right,0,strong,0.463,196.66,190.8,0.2,191.05,0.016666666666666666,191.06666666666666,0.03333333333333333,191.1,0.2,191.3,1.3,right,12,0.017816072235291358,easy
p05,1,2,16,go,right,right,1,strong,0.409,200.233,194.4,0.2,194.65,0.016666666666666666,194.66666666666666,0.03333333333333333,194.7,0.2,194.9,1.3,right,12,0.017636017122640624,easy
p05,1,2,17,go,right,right,1,strong,0.356,201.887,196.2,0.2,196.45,0.016666666666666666,196.46666666666667,0.03333333333333333,196.5,0.2,196.7,1.3,right,12,0.017917829766702198,easy
p05,1,2,19,go,right,right,1,strong,0.409,205.567,199.8,0.2,200.05,0.016666666666666666,200.06666666666666,0.03333333333333333,200.1,0.2,200.3,1.3,right,12,0.01768733576136583,easy
p05,1,2,20,go,right,right,1,strong,0.445,207.309,201.6,0.2,201.85,0.016666666666666666,201.86666666666667,0.03333333333333333,201.9,0.2,202.1,1.3,right,12,0.017885572336126643,easy
p05,1,2,21,nogo,left,right,0,strong,0.516,209.087,203.4,0.2,203.65,0.016666666666666666,203.66666666666666,0.03333333333333333,203.7,0.2,203.9,1.3,right,12,0.01773015016988211,easy
p05,1,2,22,go,right,right,1,strong,0.374,210.651,205.2,0.2,205.45,0.016666666666666666,205.46666666666667,0.03333333333333333,205.5,0.2,205.7,1.3,right,12,0.017756542612914927,easy
p05,1,2,23,nogo,left,right,0,strong,0.338,212.322,207,0.2,207.25,0.016666666666666666,207.26666666666668,0.03333333333333333,207.3,0.2,207.5,1.3,right,12,0.01789671581263974,easy
p05,1,2,24,go,right,right,1,strong,0.374,214.065,208.8,0.2,209.05,0.016666666666666666,209.06666666666666,0.03333333333333333,209.1,0.2,209.3,1.3,right,12,0.0177682725880004,easy
p05,1,2,26,nogo,left,NA,1,weak,NA,NA,212.4,0.2,212.65,0.2,212.85,0.03333333333333333,212.88333333333333,0.016666666666666666,212.9,1.3,right,12,0.21340343166320963,easy
p05,1,2,27,go,right,right,1,weak,0.107,219.522,214.2,0.2,214.45,0.2,214.65,0.03333333333333333,214.68333333333334,0.016666666666666666,214.7,1.3,right,12,0.2132878914108005,easy
p05,1,2,28,nogo,left,NA,1,weak,NA,NA,216,0.2,216.25,0.2,216.45,0.03333333333333333,216.48333333333332,0.016666666666666666,216.5,1.3,right,12,0.21327000319888612,easy
p05,1,2,29,nogo,left,right,0,weak,0.107,223.327,217.8,0.2,218.05,0.2,218.25,0.03333333333333333,218.28333333333333,0.016666666666666666,218.3,1.3,right,12,0.21333569105809147,easy
p05,1,2,30,go,right,right,1,weak,0.178,225.3,219.6,0.2,219.85,0.2,220.05,0.03333333333333333,220.08333333333334,0.016666666666666666,220.1,1.3,right,12,0.21345152455978678,easy
p05,1,2,31,go,right,right,1,weak,0.338,227.363,221.4,0.2,221.65,0.2,221.85,0.03333333333333333,221.88333333333333,0.016666666666666666,221.9,1.3,right,12,0.2132656044586838,easy
p05,1,2,32,go,right,right,1,strong,0.516,229.247,223.2,0.2,223.45,0.016666666666666666,223.46666666666667,0.03333333333333333,223.5,0.2,223.7,1.3,right,12,0.017870909867269802,easy
p05,1,2,33,nogo,left,NA,1,weak,NA,NA,225,0.2,225.25,0.2,225.45,0.03333333333333333,225.48333333333332,0.016666666666666666,225.5,1.3,right,12,0.21331868259494513,easy
p05,1,2,35,go,right,right,1,weak,0.214,234.669,228.6,0.2,228.85,0.2,229.05,0.03333333333333333,229.08333333333334,0.016666666666666666,229.1,1.3,right,12,0.21350753518890997,easy
p05,1,2,36,go,right,right,1,weak,0.232,236.589,230.4,0.2,230.65,0.2,230.85,0.03333333333333333,230.88333333333333,0.016666666666666666,230.9,1.3,right,12,0.2132946361462018,easy
p05,1,2,37,nogo,left,NA,1,weak,NA,NA,232.2,0.2,232.45,0.2,232.65,0.03333333333333333,232.68333333333334,0.016666666666666666,232.7,1.3,right,12,0.21338261095752387,easy
p05,1,2,39,nogo,left,NA,1,weak,NA,NA,235.8,0.2,236.05,0.2,236.25,0.03333333333333333,236.28333333333333,0.016666666666666666,236.3,1.3,right,12,0.21337879871589394,easy
p05,1,2,40,catch,NA,right,1,catch,0.445,244.181,237.6,0.2,237.85,0.0,237.85,0.0,237.85,0.25,238.1,1.3,right,12,1.671521386015229e-5,easy
p05,1,2,42,nogo,left,right,0,strong,0.445,251.647,244.8,0.2,245.05,0.016666666666666666,245.06666666666666,0.03333333333333333,245.1,0.2,245.3,1.3,right,12,0.017790266290830914,easy
p05,1,2,1,nogo,left,right,0,strong,0.481,261.71,252.6,0.2,252.85,0.016666666666666666,252.86666666666667,0.03333333333333333,252.9,0.2,253.1,1.3,right,12,0.017922228506904503,easy
p05,1,2,2,catch,NA,right,1,catch,0.569,263.452,254.4,0.2,254.65,0.0,254.65,0.0,254.65,0.25,254.9,1.3,right,12,1.7008463146339636e-5,easy
p05,1,2,3,go,right,right,1,strong,0.391,264.981,256.2,0.2,256.45,0.016666666666666666,256.46666666666664,0.03333333333333333,256.5,0.2,256.7,1.3,right,12,0.017794078532460844,easy
p05,1,2,4,nogo,left,NA,1,weak,NA,NA,258,0.2,258.25,0.2,258.45,0.03333333333333333,258.48333333333335,0.016666666666666666,258.5,1.3,right,12,0.21321545881619386,easy
p05,1,2,5,nogo,left,NA,1,weak,NA,NA,259.8,0.2,260.05,0.2,260.25,0.03333333333333333,260.28333333333336,0.016666666666666666,260.3,1.3,right,12,0.21328085342611303,easy
p05,1,2,6,go,right,right,1,strong,0.445,270.546,261.6,0.2,261.85,0.016666666666666666,261.8666666666667,0.03333333333333333,261.9,0.2,262.1,1.3,right,12,0.017732789415276784,easy
p05,1,2,7,nogo,left,right,0,strong,0.409,272.216,263.4,0.2,263.65,0.016666666666666666,263.6666666666667,0.03333333333333333,263.7,0.2,263.9,1.3,right,12,0.017644814603045234,easy
p05,1,2,8,nogo,left,right,0,strong,0.463,273.976,265.2,0.2,265.45,0.016666666666666666,265.46666666666664,0.03333333333333333,265.5,0.2,265.7,1.3,right,12,0.01782135072426172,easy
p05,1,2,9,go,right,right,1,strong,0.48,275.701,267,0.2,267.25,0.016666666666666666,267.26666666666665,0.03333333333333333,267.3,0.2,267.5,1.3,right,12,0.01772516493110743,easy
p05,1,2,11,go,right,right,1,strong,0.445,279.292,270.6,0.2,270.85,0.016666666666666666,270.8666666666667,0.03333333333333333,270.9,0.2,271.1,1.3,right,12,0.017741586895681394,easy
p05,1,2,12,go,right,right,1,weak,0.285,281.034,272.4,0.2,272.65,0.2,272.85,0.03333333333333333,272.8833333333333,0.016666666666666666,272.9,1.3,right,12,0.21346061528947757,easy
p05,1,2,13,nogo,left,NA,1,weak,NA,NA,274.2,0.2,274.45,0.2,274.65,0.03333333333333333,274.68333333333334,0.016666666666666666,274.7,1.3,right,12,0.2133732269776374,easy
p05,1,2,14,nogo,left,NA,1,weak,NA,NA,276,0.2,276.25,0.2,276.45,0.03333333333333333,276.48333333333335,0.016666666666666666,276.5,1.3,right,12,0.2133304125700306,easy
p05,1,2,15,nogo,left,NA,1,weak,NA,NA,277.8,0.2,278.05,0.2,278.25,0.03333333333333333,278.28333333333336,0.016666666666666666,278.3,1.3,right,12,0.21345709629804333,easy
p05,1,2,16,nogo,left,right,0,strong,0.463,288.626,279.6,0.2,279.85,0.016666666666666666,279.8666666666667,0.03333333333333333,279.9,0.2,280.1,1.3,right,12,0.017867684124212246,easy
p05,1,2,18,catch,NA,right,1,catch,0.445,292.181,283.2,0.2,283.45,0.0,283.45,0.0,283.45,0.25,283.7,1.3,right,12,1.671521476964699e-5,easy
p05,1,2,20,go,right,right,1,weak,0.285,297.763,288.6,0.2,288.85,0.2,289.05,0.03333333333333333,289.0833333333333,0.016666666666666666,289.1,1.3,right,12,0.21336530924418184,easy
p05,1,2,22,nogo,left,right,0,strong,0.427,303.452,294,0.2,294.25,0.016666666666666666,294.26666666666665,0.03333333333333333,294.3,0.2,294.5,1.3,right,12,0.017762700850653346,easy
p05,1,2,23,go,right,right,1,weak,0.214,305.141,295.8,0.2,296.05,0.2,296.25,0.03333333333333333,296.28333333333336,0.016666666666666666,296.3,1.3,right,12,0.21328671841365576,easy
p05,1,2,24,go,right,right,1,strong,0.445,307.079,297.6,0.2,297.85,0.016666666666666666,297.8666666666667,0.03333333333333333,297.9,0.2,298.1,1.3,right,12,0.017836306442404748,easy
p05,1,2,25,go,right,right,1,weak,0.232,308.768,299.4,0.2,299.65,0.2,299.85,0.03333333333333333,299.8833333333333,0.016666666666666666,299.9,1.3,right,12,0.21312132576804288,easy
p05,1,2,27,go,right,right,1,strong,0.463,312.626,303,0.2,303.25,0.016666666666666666,303.26666666666665,0.03333333333333333,303.3,0.2,303.5,1.3,right,12,0.01771402145459433,easy
p05,1,2,28,nogo,left,right,0,strong,0.498,314.368,304.8,0.2,305.05,0.016666666666666666,305.06666666666666,0.03333333333333333,305.1,0.2,305.3,1.3,right,12,0.017750677626281686,easy
p05,1,2,30,nogo,left,right,0,strong,0.427,319.844,310.2,0.2,310.45,0.016666666666666666,310.46666666666664,0.03333333333333333,310.5,0.2,310.7,1.3,right,12,0.017767392840141838,easy
p05,1,2,31,go,right,right,1,strong,0.463,321.586,312,0.2,312.25,0.016666666666666666,312.26666666666665,0.03333333333333333,312.3,0.2,312.5,1.3,right,12,0.01773718815547909,easy
p05,1,2,32,nogo,left,NA,1,weak,NA,NA,313.8,0.2,314.05,0.2,314.25,0.03333333333333333,314.28333333333336,0.016666666666666666,314.3,1.3,right,12,0.21330284712894354,easy
p05,1,2,33,nogo,left,right,0,strong,0.427,325.159,315.6,0.2,315.85,0.016666666666666666,315.8666666666667,0.03333333333333333,315.9,0.2,316.1,1.3,right,12,0.017749504629136936,easy
p05,1,2,34,nogo,left,NA,1,weak,NA,NA,317.4,0.2,317.65,0.2,317.85,0.03333333333333333,317.8833333333333,0.016666666666666666,317.9,1.3,right,12,0.21338055821252055,easy
p05,1,2,35,go,right,right,1,weak,0.232,328.768,319.2,0.2,319.45,0.2,319.65,0.03333333333333333,319.68333333333334,0.016666666666666666,319.7,1.3,right,12,0.21324654324962466,easy
p05,1,2,36,go,right,right,1,weak,0.249,330.688,321,0.2,321.25,0.2,321.45,0.03333333333333333,321.48333333333335,0.016666666666666666,321.5,1.3,right,12,0.2133236678346293,easy
p05,1,2,37,go,right,right,1,weak,0.232,332.573,322.8,0.2,323.05,0.2,323.25,0.03333333333333333,323.28333333333336,0.016666666666666666,323.3,1.3,right,12,0.2134198536268741,easy
p05,1,2,38,go,right,right,1,weak,0.285,334.528,324.6,0.2,324.85,0.2,325.05,0.03333333333333333,325.0833333333333,0.016666666666666666,325.1,1.3,right,12,0.21329434289782512,easy
p05,1,2,39,nogo,left,NA,1,weak,NA,NA,326.4,0.2,326.65,0.2,326.85,0.03333333333333333,326.8833333333333,0.016666666666666666,326.9,1.3,right,12,0.2134043114110682,easy
p05,1,2,40,catch,NA,right,1,catch,0.552,338.351,328.2,0.2,328.45,0.0,328.45,0.0,328.45,0.25,328.7,1.3,right,12,1.7301713342021685e-5,easy
p05,1,2,41,go,right,right,1,strong,0.534,340.04,330,0.2,330.25,0.016666666666666666,330.26666666666665,0.03333333333333333,330.3,0.2,330.5,1.3,right,12,0.017694960245535185,easy
p05,1,2,42,catch,NA,right,1,catch,0.409,341.569,331.8,0.2,332.05,0.0,332.05,0.0,332.05,0.25,332.3,1.3,right,12,1.7594962628209032e-5,easy
p05,1,3,1,go,right,right,1,weak,0.481,0.895,0,0.2,0.25,0.1,0.35,0.03333333333333333,0.38333333333333336,0.11666666666666667,0.5,1.3,right,6,0.10665127694028342,difficult
p05,1,3,2,nogo,left,right,0,strong,0.445,2.566,1.8,0.2,2.05,0.016666666666666666,2.066666666666667,0.03333333333333333,2.1,0.2,2.3,1.3,right,6,0.017771205081771768,difficult
p05,1,3,4,nogo,left,NA,1,weak,NA,NA,5.4,0.2,5.65,0.1,5.75,0.03333333333333333,5.783333333333333,0.11666666666666667,5.9,1.3,right,6,0.10680875185153127,difficult
p05,1,3,5,go,right,right,1,weak,0.339,7.971,7.2,0.2,7.45,0.1,7.55,0.03333333333333333,7.583333333333333,0.11666666666666667,7.7,1.3,right,6,0.10656447512610612,difficult
p05,1,3,6,go,right,right,1,strong,0.338,9.677,9,0.2,9.25,0.016666666666666666,9.266666666666667,0.03333333333333333,9.3,0.2,9.5,1.3,right,6,0.01791929601404263,difficult
p05,1,3,7,nogo,left,right,0,strong,0.463,11.508,10.8,0.2,11.05,0.016666666666666666,11.066666666666666,0.03333333333333333,11.1,0.2,11.3,1.3,right,6,0.017888211580611824,difficult
p05,1,3,8,go,right,right,1,strong,0.392,13.144,12.6,0.2,12.85,0.016666666666666666,12.866666666666667,0.03333333333333333,12.9,0.2,13.1,1.3,right,6,0.017871203117465484,difficult
p05,1,3,9,go,right,right,1,weak,0.303,14.851,14.4,0.2,14.65,0.1,14.75,0.03333333333333333,14.783333333333333,0.11666666666666667,14.9,1.3,right,6,0.10665596892977192,difficult
p05,1,3,10,go,right,right,1,weak,0.285,16.629,16.2,0.2,16.45,0.1,16.55,0.03333333333333333,16.583333333333332,0.11666666666666667,16.7,1.3,right,6,0.10657356585670641,difficult
p05,1,3,11,nogo,left,NA,1,weak,NA,NA,18,0.2,18.25,0.1,18.35,0.03333333333333333,18.383333333333333,0.11666666666666667,18.5,1.3,right,6,0.10671139306032273,difficult
p05,1,3,12,nogo,left,right,0,strong,0.356,20.202,19.8,0.2,20.05,0.016666666666666666,20.066666666666666,0.03333333333333333,20.1,0.2,20.3,1.3,right,6,0.017878534351439157,difficult
p05,1,3,13,nogo,left,NA,1,weak,NA,NA,21.6,0.2,21.85,0.1,21.95,0.03333333333333333,21.983333333333334,0.11666666666666667,22.1,1.3,right,6,0.10657649835047778,difficult
p05,1,3,14,go,right,right,1,strong,0.374,23.722,23.4,0.2,23.65,0.016666666666666666,23.666666666666668,0.03333333333333333,23.7,0.2,23.9,1.3,right,6,0.017716367449793324,difficult
p05,1,3,15,nogo,left,right,0,strong,0.534,25.589,25.2,0.2,25.45,0.016666666666666666,25.466666666666665,0.03333333333333333,25.5,0.2,25.7,1.3,right,6,0.0176835235197359,difficult
p05,1,3,16,go,right,right,1,strong,0.427,27.189,27,0.2,27.25,0.016666666666666666,27.266666666666666,0.03333333333333333,27.3,0.2,27.5,1.3,right,6,0.017812553242947615,difficult
p05,1,3,17,go,right,right,1,strong,0.445,28.913,28.8,0.2,29.05,0.016666666666666666,29.066666666666666,0.03333333333333333,29.1,0.2,29.3,1.3,right,6,0.017682937021163525,difficult
p05,1,3,18,go,right,right,1,strong,0.392,30.566,30.6,0.2,30.85,0.016666666666666666,30.866666666666667,0.03333333333333333,30.9,0.2,31.1,1.3,right,6,0.017820470975493663,difficult
p05,1,3,19,catch,NA,right,1,catch,0.516,32.344,32.4,0.2,32.65,0.0,32.65,0.0,32.65,0.25,32.9,1.3,right,6,1.7301712432526983e-5,difficult
p05,1,3,20,go,right,right,1,weak,0.303,33.926,34.2,0.2,34.45,0.1,34.55,0.03333333333333333,34.583333333333336,0.11666666666666667,34.7,1.3,right,6,0.10665508918100386,difficult
p05,1,3,21,nogo,left,right,0,strong,0.356,35.686,36,0.2,36.25,0.016666666666666666,36.266666666666666,0.03333333333333333,36.3,0.2,36.5,1.3,right,6,0.01778792029563192,difficult
p05,1,3,23,nogo,left,right,0,strong,0.374,41.251,41.4,0.2,41.65,0.016666666666666666,41.666666666666664,0.03333333333333333,41.7,0.2,41.9,1.3,right,6,0.017633964376727818,difficult
p05,1,3,25,go,right,right,1,strong,0.427,44.931,45,0.2,45.25,0.016666666666666666,45.266666666666666,0.03333333333333333,45.3,0.2,45.5,1.3,right,6,0.017759768355972483,difficult
p05,1,3,27,nogo,left,NA,1,weak,NA,NA,48.6,0.2,48.85,0.1,48.95,0.03333333333333333,48.983333333333334,0.11666666666666667,49.1,1.3,right,6,0.1065961460581093,difficult
p05,1,3,28,nogo,left,right,0,strong,0.409,50.335,50.4,0.2,50.65,0.016666666666666666,50.666666666666664,0.03333333333333333,50.7,0.2,50.9,1.3,right,6,0.0177682725880004,difficult
p05,1,3,30,go,right,right,1,weak,0.356,53.998,54,0.2,54.25,0.1,54.35,0.03333333333333333,54.38333333333333,0.11666666666666667,54.5,1.3,right,6,0.10670200908043626,difficult
p05,1,3,31,nogo,left,NA,1,weak,NA,NA,55.8,0.2,56.05,0.1,56.15,0.03333333333333333,56.18333333333333,0.11666666666666667,56.3,1.3,right,6,0.1067612454535265,difficult
p05,1,3,32,nogo,left,NA,1,weak,NA,NA,57.6,0.2,57.85,0.1,57.95,0.03333333333333333,57.983333333333334,0.11666666666666667,58.1,1.3,right,6,0.1067031820784905,difficult
p05,1,3,34,go,right,right,1,weak,0.534,61.483,61.2,0.2,61.45,0.1,61.55,0.03333333333333333,61.583333333333336,0.11666666666666667,61.7,1.3,right,6,0.10664453220488213,difficult
p05,1,3,35,catch,NA,right,1,catch,0.534,63.136,63,0.2,63.25,0.0,63.25,0.0,63.25,0.25,63.5,1.3,right,6,1.759496171871433e-5,difficult
p05,1,3,37,catch,NA,right,1,catch,0.409,66.585,66.6,0.2,66.85,0.0,66.85,0.0,66.85,0.25,67.1,1.3,right,6,1.7008463146339636e-5,difficult
p05,1,3,38,nogo,left,right,0,strong,0.392,68.274,68.4,0.2,68.65,0.016666666666666666,68.66666666666667,0.03333333333333333,68.7,0.2,68.9,1.3,right,6,0.017701704981845978,difficult
p05,1,3,39,nogo,left,NA,1,weak,NA,NA,70.2,0.2,70.45,0.1,70.55,0.03333333333333333,70.58333333333333,0.11666666666666667,70.7,1.3,right,6,0.10661755326236744,difficult
p05,1,3,40,nogo,left,NA,1,weak,NA,NA,72,0.2,72.25,0.1,72.35,0.03333333333333333,72.38333333333334,0.11666666666666667,72.5,1.3,right,6,0.10670582132297568,difficult
p05,1,3,41,go,right,right,1,strong,0.445,73.625,73.8,0.2,74.05,0.016666666666666666,74.06666666666666,0.03333333333333333,74.1,0.2,74.3,1.3,right,6,0.017867097626549366,difficult
p05,1,3,42,catch,NA,right,1,catch,0.534,75.367,75.6,0.2,75.85,0.0,75.85,0.0,75.85,0.25,76.1,1.3,right,6,1.7008464055834338e-5,difficult
p05,1,3,43,go,right,right,1,weak,0.445,77.074,77.4,0.2,77.65,0.1,77.75,0.03333333333333333,77.78333333333333,0.11666666666666667,77.9,1.3,right,6,0.10664130646182457,difficult
p05,1,3,1,go,right,right,1,strong,0.356,84.878,83.2,0.2,83.45,0.016666666666666666,83.46666666666667,0.03333333333333333,83.5,0.2,83.7,1.3,right,6,0.017692907500531874,difficult
p05,1,3,3,nogo,left,NA,1,weak,NA,NA,86.8,0.2,87.05,0.1,87.15,0.03333333333333333,87.18333333333334,0.11666666666666667,87.3,1.3,right,6,0.10682077507499343,difficult
p05,1,3,4,catch,NA,right,1,catch,0.445,90.336,88.6,0.2,88.85,0.0,88.85,0.0,88.85,0.25,89.1,1.3,right,6,1.759496171871433e-5,difficult
p05,1,3,5,nogo,left,right,0,strong,0.498,92.096,90.4,0.2,90.65,0.016666666666666666,90.66666666666667,0.03333333333333333,90.7,0.2,90.9,1.3,right,6,0.017853314904641593,difficult
p05,1,3,6,go,right,right,1,weak,0.338,93.732,92.2,0.2,92.45,0.1,92.55,0.03333333333333333,92.58333333333333,0.11666666666666667,92.7,1.3,right,6,0.1065961460581093,difficult
p05,1,3,7,go,right,right,1,strong,0.427,95.527,94,0.2,94.25,0.016666666666666666,94.26666666666667,0.03333333333333333,94.3,0.2,94.5,1.3,right,6,0.017730443419168296,difficult
p05,1,3,8,go,right,right,1,strong,0.463,97.27,95.8,0.2,96.05,0.016666666666666666,96.06666666666666,0.03333333333333333,96.1,0.2,96.3,1.3,right,6,0.017920762260473566,difficult
p05,1,3,10,catch,NA,right,1,catch,0.409,100.79,99.4,0.2,99.65,0.0,99.65,0.0,99.65,0.25,99.9,1.3,right,6,1.7594962628209032e-5,difficult
p05,1,3,11,nogo,left,NA,1,weak,NA,NA,101.2,0.2,101.45,0.1,101.55,0.03333333333333333,101.58333333333333,0.11666666666666667,101.7,1.3,right,6,0.10662459124705492,difficult
p05,1,3,12,go,right,right,1,weak,0.32,104.292,103,0.2,103.25,0.1,103.35,0.03333333333333333,103.38333333333334,0.11666666666666667,103.5,1.3,right,6,0.10666036766997422,difficult
p05,1,3,13,go,right,right,1,weak,0.356,106.123,104.8,0.2,105.05,0.1,105.15,0.03333333333333333,105.18333333333334,0.11666666666666667,105.3,1.3,right,6,0.1066808951263738,difficult
p05,1,3,14,go,right,right,1,weak,0.356,107.919,106.6,0.2,106.85,0.1,106.95,0.03333333333333333,106.98333333333333,0.11666666666666667,107.1,1.3,right,6,0.10661872625951219,difficult
p05,1,3,15,nogo,left,right,0,strong,0.712,109.981,108.4,0.2,108.65,0.016666666666666666,108.66666666666667,0.03333333333333333,108.7,0.2,108.9,1.3,right,6,0.017800530018575955,difficult
p05,1,3,17,nogo,left,NA,1,weak,NA,NA,112,0.2,112.25,0.1,112.35,0.03333333333333333,112.38333333333334,0.11666666666666667,112.5,1.3,right,6,0.10660934227962571,difficult
p05,1,3,18,go,right,right,1,weak,0.303,115.083,113.8,0.2,114.05,0.1,114.15,0.03333333333333333,114.18333333333334,0.11666666666666667,114.3,1.3,right,6,0.10657649835047778,difficult
p05,1,3,20,nogo,left,right,0,strong,0.392,118.799,117.4,0.2,117.65,0.016666666666666666,117.66666666666667,0.03333333333333333,117.7,0.2,117.9,1.3,right,6,0.017891730572955566,difficult
p05,1,3,21,nogo,left,right,0,strong,0.445,120.559,119.2,0.2,119.45,0.016666666666666666,119.46666666666667,0.03333333333333333,119.5,0.2,119.7,1.3,right,6,0.017917243269039318,difficult
p05,1,3,22,catch,NA,right,1,catch,0.516,122.283,121,0.2,121.25,0.0,121.25,0.0,121.25,0.25,121.5,1.3,right,6,1.8181461200583726e-5,difficult
p05,1,3,23,catch,NA,right,1,catch,0.498,123.919,122.8,0.2,123.05,0.0,123.05,0.0,123.05,0.25,123.3,1.3,right,6,1.788821191439638e-5,difficult
p05,1,3,24,nogo,left,NA,1,weak,NA,NA,124.6,0.2,124.85,0.1,124.95,0.03333333333333333,124.98333333333333,0.11666666666666667,125.1,1.3,right,6,0.10650758474821487,difficult
p05,1,3,25,go,right,right,1,strong,0.463,127.386,126.4,0.2,126.65,0.016666666666666666,126.66666666666667,0.03333333333333333,126.7,0.2,126.9,1.3,right,6,0.017750970875567873,difficult
p05,1,3,26,nogo,left,NA,1,weak,NA,NA,128.2,0.2,128.45,0.1,128.55,0.03333333333333333,128.58333333333334,0.11666666666666667,128.7,1.3,right,6,0.10679790162430436,difficult
p05,1,3,28,go,right,right,1,weak,0.338,132.772,131.8,0.2,132.05,0.1,132.15,0.03333333333333333,132.18333333333334,0.11666666666666667,132.3,1.3,right,6,0.10667942887903337,difficult
p05,1,3,29,go,right,right,1,strong,0.499,134.639,133.6,0.2,133.85,0.016666666666666666,133.86666666666667,0.03333333333333333,133.9,0.2,134.1,1.3,right,6,0.017917243268129823,difficult
p05,1,3,31,go,right,right,1,strong,0.427,138.195,137.2,0.2,137.45,0.016666666666666666,137.46666666666667,0.03333333333333333,137.5,0.2,137.7,1.3,right,6,0.017813432991715672,difficult
p05,1,3,32,go,right,right,1,strong,0.427,139.901,139,0.2,139.25,0.016666666666666666,139.26666666666668,0.03333333333333333,139.3,0.2,139.5,1.3,right,6,0.017913431026499893,difficult
p05,1,3,34,nogo,left,NA,1,weak,NA,NA,144.4,0.2,144.65,0.1,144.75,0.03333333333333333,144.78333333333333,0.11666666666666667,144.9,1.3,right,6,0.10692810434466082,difficult
p05,1,3,35,nogo,left,NA,1,weak,NA,NA,146.2,0.2,146.45,0.1,146.55,0.03333333333333333,146.58333333333334,0.11666666666666667,146.7,1.3,right,6,0.10667737613312056,difficult
p05,1,3,36,nogo,left,right,0,strong,0.552,149.164,148,0.2,148.25,0.016666666666666666,148.26666666666668,0.03333333333333333,148.3,0.2,148.5,1.3,right,6,0.017750970875567873,difficult
p05,1,3,37,nogo,left,NA,1,weak,NA,NA,149.8,0.2,150.05,0.1,150.15,0.03333333333333333,150.18333333333334,0.11666666666666667,150.3,1.3,right,6,0.1067588994583275,difficult
p05,1,3,38,go,right,right,1,weak,0.48,152.684,151.6,0.2,151.85,0.1,151.95,0.03333333333333333,151.98333333333332,0.11666666666666667,152.1,1.3,right,6,0.10669673059237539,difficult
p05,1,3,39,nogo,left,right,0,strong,0.569,154.479,153.4,0.2,153.65,0.016666666666666666,153.66666666666666,0.03333333333333333,153.7,0.2,153.9,1.3,right,6,0.01760434618972795,difficult
p05,1,3,40,go,right,right,1,weak,0.587,156.292,155.2,0.2,155.45,0.1,155.55,0.03333333333333333,155.58333333333334,0.11666666666666667,155.7,1.3,right,6,0.1062501118012733,difficult
p05,1,3,41,nogo,left,right,0,strong,0.534,157.946,157,0.2,157.25,0.016666666666666666,157.26666666666668,0.03333333333333333,157.3,0.2,157.5,1.3,right,6,0.017656837827416894,difficult
p05,1,3,43,nogo,left,right,0,strong,0.409,161.448,160.6,0.2,160.85,0.016666666666666666,160.86666666666667,0.03333333333333333,160.9,0.2,161.1,1.3,right,6,0.017790852790312783,difficult
p05,1,3,44,go,right,right,1,strong,0.356,163.102,162.4,0.2,162.65,0.016666666666666666,162.66666666666666,0.03333333333333333,162.7,0.2,162.9,1.3,right,6,0.017664755560872436,difficult
p05,1,3,1,nogo,left,right,0,weak,0.232,171.173,168.4,0.2,168.65,0.1,168.75,0.03333333333333333,168.78333333333333,0.11666666666666667,168.9,1.3,right,6,0.10671139306032273,difficult
p05,1,3,2,nogo,left,right,0,strong,0.41,173.057,170.2,0.2,170.45,0.016666666666666666,170.46666666666667,0.03333333333333333,170.5,0.2,170.7,1.3,right,6,0.017757129112396797,difficult
p05,1,3,4,catch,NA,right,1,catch,0.552,176.773,173.8,0.2,174.05,0.0,174.05,0.0,174.05,0.25,174.3,1.3,right,6,1.9061209059145767e-5,difficult
p05,1,3,5,go,right,right,1,strong,0.445,178.373,175.6,0.2,175.85,0.016666666666666666,175.86666666666667,0.03333333333333333,175.9,0.2,176.1,1.3,right,6,0.017789973041544727,difficult
p05,1,3,6,go,right,right,1,strong,0.463,180.097,177.4,0.2,177.65,0.016666666666666666,177.66666666666666,0.03333333333333333,177.7,0.2,177.9,1.3,right,6,0.01780551525826013,difficult
p05,1,3,8,go,right,right,1,strong,0.48,183.742,181,0.2,181.25,0.016666666666666666,181.26666666666668,0.03333333333333333,181.3,0.2,181.5,1.3,right,6,0.018017827802395914,difficult
p05,1,3,9,nogo,left,right,0,strong,0.48,185.449,182.8,0.2,183.05,0.016666666666666666,183.06666666666666,0.03333333333333333,183.1,0.2,183.3,1.3,right,6,0.01785595415003627,difficult
p05,1,3,10,go,right,right,1,weak,0.427,187.191,184.6,0.2,184.85,0.1,184.95,0.03333333333333333,184.98333333333332,0.11666666666666667,185.1,1.3,right,6,0.10666652590680314,difficult
p05,1,3,11,nogo,left,right,0,strong,0.48,188.951,186.4,0.2,186.65,0.016666666666666666,186.66666666666666,0.03333333333333333,186.7,0.2,186.9,1.3,right,6,0.017746865384651755,difficult
p05,1,3,12,nogo,left,right,0,strong,0.445,190.622,188.2,0.2,188.45,0.016666666666666666,188.46666666666667,0.03333333333333333,188.5,0.2,188.7,1.3,right,6,0.017559772285494546,difficult
p05,1,3,13,nogo,left,NA,1,weak,NA,NA,190,0.2,190.25,0.1,190.35,0.03333333333333333,190.38333333333333,0.11666666666666667,190.5,1.3,right,6,0.10664218620968313,difficult
p05,1,3,15,nogo,left,NA,1,weak,NA,NA,193.6,0.2,193.85,0.1,193.95,0.03333333333333333,193.98333333333332,0.11666666666666667,194.1,1.3,right,6,0.1066829478722866,difficult
p05,1,3,16,go,right,right,1,strong,0.409,197.804,195.4,0.2,195.65,0.016666666666666666,195.66666666666666,0.03333333333333333,195.7,0.2,195.9,1.3,right,6,0.01783718619026331,difficult
p05,1,3,17,nogo,left,NA,1,weak,NA,NA,197.2,0.2,197.45,0.1,197.55,0.03333333333333333,197.58333333333334,0.11666666666666667,197.7,1.3,right,6,0.10660582328728196,difficult
p05,1,3,18,nogo,left,right,0,strong,0.48,201.378,199,0.2,199.25,0.016666666666666666,199.26666666666668,0.03333333333333333,199.3,0.2,199.5,1.3,right,6,0.017845983671577414,difficult
p05,1,3,19,go,right,right,1,weak,0.356,203.049,200.8,0.2,201.05,0.1,201.15,0.03333333333333333,201.18333333333334,0.11666666666666667,201.3,1.3,right,6,0.10689350091979577,difficult
p05,1,3,20,nogo,left,NA,1,weak,NA,NA,202.6,0.2,202.85,0.1,202.95,0.03333333333333333,202.98333333333332,0.11666666666666667,203.1,1.3,right,6,0.10673573275835224,difficult
p05,1,3,21,go,right,right,1,strong,0.427,206.622,204.4,0.2,204.65,0.016666666666666666,204.66666666666666,0.03333333333333333,204.7,0.2,204.9,1.3,right,6,0.01785917989218433,difficult
p05,1,3,22,go,right,right,1,weak,0.516,208.507,206.2,0.2,206.45,0.1,206.55,0.03333333333333333,206.58333333333334,0.11666666666666667,206.7,1.3,right,6,0.10666095416945609,difficult
p05,1,3,23,go,right,right,1,strong,0.498,210.195,208,0.2,208.25,0.016666666666666666,208.26666666666668,0.03333333333333333,208.3,0.2,208.5,1.3,right,6,0.01781431273866474,difficult
p05,1,3,24,go,right,right,1,weak,0.8,212.293,209.8,0.2,210.05,0.1,210.15,0.03333333333333333,210.18333333333334,0.11666666666666667,210.3,1.3,right,6,0.10662605749439535,difficult
p05,1,3,25,nogo,left,right,0,strong,0.552,213.751,211.6,0.2,211.85,0.016666666666666666,211.86666666666667,0.03333333333333333,211.9,0.2,212.1,1.3,right,6,0.01777149833196745,difficult
p05,1,3,26,nogo,left,NA,1,weak,NA,NA,213.4,0.2,213.65,0.1,213.75,0.03333333333333333,213.78333333333333,0.11666666666666667,213.9,1.3,right,6,0.10663221573122428,difficult
p05,1,3,27,catch,NA,right,1,catch,0.552,217.2,215.2,0.2,215.45,0.0,215.45,0.0,215.45,0.25,215.7,1.3,right,6,1.7594962628209032e-5,difficult
p05,1,3,28,nogo,left,NA,1,weak,NA,NA,217,0.2,217.25,0.1,217.35,0.03333333333333333,217.38333333333333,0.11666666666666667,217.5,1.3,right,6,0.10660787603319477,difficult
p05,1,3,29,nogo,left,NA,1,strong,NA,NA,218.8,0.2,219.05,0.016666666666666666,219.06666666666666,0.03333333333333333,219.1,0.2,219.3,1.3,right,6,0.017787627047255228,difficult
p05,1,3,30,catch,NA,right,1,catch,0.356,222.16,220.6,0.2,220.85,0.0,220.85,0.0,220.85,0.25,221.1,1.3,right,6,1.7301712432526983e-5,difficult
p05,1,3,31,go,right,right,1,weak,0.249,223.849,222.4,0.2,222.65,0.1,222.75,0.03333333333333333,222.78333333333333,0.11666666666666667,222.9,1.3,right,6,0.1065873485767952,difficult
p05,1,3,33,nogo,left,NA,1,strong,NA,NA,226,0.2,226.25,0.016666666666666666,226.26666666666668,0.03333333333333333,226.3,0.2,226.5,1.3,right,6,0.017667981303020497,difficult
p05,1,3,35,go,right,right,1,weak,0.338,231.28,229.6,0.2,229.85,0.1,229.95,0.03333333333333333,229.98333333333332,0.11666666666666667,230.1,1.3,right,6,0.10682165482376149,difficult
p05,1,3,36,go,right,right,1,strong,0.498,233.147,231.4,0.2,231.65,0.016666666666666666,231.66666666666666,0.03333333333333333,231.7,0.2,231.9,1.3,right,6,0.017805808507546317,difficult
p05,1,3,37,go,right,right,1,weak,0.392,234.836,233.2,0.2,233.45,0.1,233.55,0.03333333333333333,233.58333333333334,0.11666666666666667,233.7,1.3,right,6,0.10666183391731465,difficult
p05,1,3,39,go,right,right,1,strong,0.409,238.48,236.8,0.2,237.05,0.016666666666666666,237.06666666666666,0.03333333333333333,237.1,0.2,237.3,1.3,right,6,0.017726924426824553,difficult
p05,1,3,40,go,right,right,1,weak,0.374,240.241,238.6,0.2,238.85,0.1,238.95,0.03333333333333333,238.98333333333332,0.11666666666666667,239.1,1.3,right,6,0.10656183588162094,difficult
p05,1,3,42,nogo,left,NA,1,weak,NA,NA,245.8,0.2,246.05,0.1,246.15,0.03333333333333333,246.18333333333334,0.11666666666666667,246.3,1.3,right,6,0.10663837396714371,difficult
p05,1,3,43,catch,NA,right,1,catch,0.48,249.556,247.6,0.2,247.85,0.0,247.85,0.0,247.85,0.25,248.1,1.3,right,6,1.788821191439638e-5,difficult
p05,1,3,1,catch,NA,right,1,catch,0.569,256.632,252.6,0.2,252.85,0.0,252.85,0.0,252.85,0.25,253.1,1.3,right,6,1.9354458345333114e-5,difficult
p05,1,3,2,nogo,left,NA,1,weak,NA,NA,254.4,0.2,254.65,0.1,254.75,0.03333333333333333,254.78333333333333,0.11666666666666667,254.9,1.3,right,6,0.10674746273343771,difficult
p05,1,3,3,catch,NA,right,1,catch,0.445,259.956,256.2,0.2,256.45,0.0,256.45,0.0,256.45,0.25,256.7,1.3,right,6,1.7594962628209032e-5,difficult
p05,1,3,4,nogo,left,NA,1,strong,NA,NA,258,0.2,258.25,0.016666666666666666,258.26666666666665,0.03333333333333333,258.3,0.2,258.5,1.3,right,6,0.01791255127864133,difficult
p05,1,3,5,nogo,left,right,0,strong,0.356,263.281,259.8,0.2,260.05,0.016666666666666666,260.06666666666666,0.03333333333333333,260.1,0.2,260.3,1.3,right,6,0.017745399137311324,difficult
p05,1,3,6,nogo,left,NA,1,weak,NA,NA,261.6,0.2,261.85,0.1,261.95,0.03333333333333333,261.98333333333335,0.11666666666666667,262.1,1.3,right,6,0.10668353436994948,difficult
p05,1,3,8,catch,NA,right,1,catch,0.445,268.739,265.2,0.2,265.45,0.0,265.45,0.0,265.45,0.25,265.7,1.3,right,6,1.671521476964699e-5,difficult
p05,1,3,9,go,right,right,1,strong,0.409,270.41,267,0.2,267.25,0.016666666666666666,267.26666666666665,0.03333333333333333,267.3,0.2,267.5,1.3,right,6,0.017656544578130706,difficult
p05,1,3,10,nogo,left,right,0,strong,0.427,272.134,268.8,0.2,269.05,0.016666666666666666,269.06666666666666,0.03333333333333333,269.1,0.2,269.3,1.3,right,6,0.017865924628495122,difficult
p05,1,3,12,go,right,right,1,weak,0.373,275.796,272.4,0.2,272.65,0.1,272.75,0.03333333333333333,272.78333333333336,0.11666666666666667,272.9,1.3,right,6,0.10658588233036426,difficult
p05,1,3,13,go,right,right,1,strong,0.427,277.556,274.2,0.2,274.45,0.016666666666666666,274.46666666666664,0.03333333333333333,274.5,0.2,274.7,1.3,right,6,0.01779789077500027,difficult
p05,1,3,14,go,right,right,1,strong,0.427,279.263,276,0.2,276.25,0.016666666666666666,276.26666666666665,0.03333333333333333,276.3,0.2,276.5,1.3,right,6,0.01780287601377495,difficult
p05,1,3,15,nogo,left,NA,1,strong,NA,NA,277.8,0.2,278.05,0.016666666666666666,278.06666666666666,0.03333333333333333,278.1,0.2,278.3,1.3,right,6,0.017987329868446977,difficult
p05,1,3,16,nogo,left,NA,1,weak,NA,NA,279.6,0.2,279.85,0.1,279.95,0.03333333333333333,279.98333333333335,0.11666666666666667,280.1,1.3,right,6,0.10676886993769585,difficult
p05,1,3,18,go,right,right,1,weak,0.321,286.375,283.2,0.2,283.45,0.1,283.55,0.03333333333333333,283.5833333333333,0.11666666666666667,283.7,1.3,right,6,0.10677796066738665,difficult
p05,1,3,19,nogo,left,NA,1,weak,NA,NA,285,0.2,285.25,0.1,285.35,0.03333333333333333,285.3833333333333,0.11666666666666667,285.5,1.3,right,6,0.10674306399232592,difficult
p05,1,3,20,go,right,right,1,weak,0.463,290.108,286.8,0.2,287.05,0.1,287.15,0.03333333333333333,287.18333333333334,0.11666666666666667,287.3,1.3,right,6,0.10669057235554646,difficult
p05,1,3,21,go,right,right,1,strong,0.48,291.832,288.6,0.2,288.85,0.016666666666666666,288.8666666666667,0.03333333333333333,288.9,0.2,289.1,1.3,right,6,0.017750970875567873,difficult
p05,1,3,22,go,right,right,1,weak,0.41,293.557,290.4,0.2,290.65,0.1,290.75,0.03333333333333333,290.78333333333336,0.11666666666666667,290.9,1.3,right,6,0.10671315255694935,difficult
p05,1,3,23,go,right,right,1,weak,0.356,295.299,292.2,0.2,292.45,0.1,292.55,0.03333333333333333,292.5833333333333,0.11666666666666667,292.7,1.3,right,6,0.10675391421864333,difficult
p05,1,3,25,go,right,right,1,weak,0.356,300.934,297.6,0.2,297.85,0.1,297.95,0.03333333333333333,297.98333333333335,0.11666666666666667,298.1,1.3,right,6,0.10663720096999896,difficult
p05,1,3,26,go,right,right,1,weak,0.338,302.712,299.4,0.2,299.65,0.1,299.75,0.03333333333333333,299.78333333333336,0.11666666666666667,299.9,1.3,right,6,0.10667297739291826,difficult
p05,1,3,28,nogo,left,NA,1,weak,NA,NA,303,0.2,303.25,0.1,303.35,0.03333333333333333,303.3833333333333,0.11666666666666667,303.5,1.3,right,6,0.10668412086943135,difficult
p05,1,3,29,nogo,left,right,0,strong,0.409,308.206,304.8,0.2,305.05,0.016666666666666666,305.06666666666666,0.03333333333333333,305.1,0.2,305.3,1.3,right,6,0.01779877052285883,difficult
p05,1,3,30,catch,NA,right,1,catch,0.534,309.984,306.6,0.2,306.85,0.0,306.85,0.0,306.85,0.25,307.1,1.3,right,6,1.7008463146339636e-5,difficult
p05,1,3,31,go,right,right,1,weak,0.356,311.601,308.4,0.2,308.65,0.1,308.75,0.03333333333333333,308.78333333333336,0.11666666666666667,308.9,1.3,right,6,0.1066920386028869,difficult
p05,1,3,33,go,right,right,1,strong,0.374,315.246,312,0.2,312.25,0.016666666666666666,312.26666666666665,0.03333333333333333,312.3,0.2,312.5,1.3,right,6,0.017791439287975663,difficult
p05,1,3,34,nogo,left,right,0,weak,0.356,317.024,313.8,0.2,314.05,0.1,314.15,0.03333333333333333,314.18333333333334,0.11666666666666667,314.3,1.3,right,6,0.1064108124564882,difficult
p05,1,3,35,nogo,left,NA,1,weak,NA,NA,315.6,0.2,315.85,0.1,315.95,0.03333333333333333,315.98333333333335,0.11666666666666667,316.1,1.3,right,6,0.1066072895346224,difficult
p05,1,3,36,go,right,right,1,strong,0.463,320.633,317.4,0.2,317.65,0.016666666666666666,317.6666666666667,0.03333333333333333,317.7,0.2,317.9,1.3,right,6,0.01780639500611869,difficult
p05,1,3,37,go,right,right,1,strong,0.374,322.25,319.2,0.2,319.45,0.016666666666666666,319.46666666666664,0.03333333333333333,319.5,0.2,319.7,1.3,right,6,0.017799650270717393,difficult
p05,1,3,38,nogo,left,right,0,strong,0.534,324.117,321,0.2,321.25,0.016666666666666666,321.26666666666665,0.03333333333333333,321.3,0.2,321.5,1.3,right,6,0.017687042512079643,difficult
p05,1,3,39,nogo,left,right,0,strong,0.427,325.717,322.8,0.2,323.05,0.016666666666666666,323.06666666666666,0.03333333333333333,323.1,0.2,323.3,1.3,right,6,0.017679124779533595,difficult
p05,1,3,41,nogo,left,NA,1,weak,NA,NA,326.4,0.2,326.65,0.1,326.75,0.03333333333333333,326.78333333333336,0.11666666666666667,326.9,1.3,right,6,0.10663456172551378,difficult
p05,1,3,43,go,right,right,1,strong,0.854,333.486,330,0.2,330.25,0.016666666666666666,330.26666666666665,0.03333333333333333,330.3,0.2,330.5,1.3,right,6,0.01787003011941124,difficult
p05,1,3,44,nogo,left,right,0,strong,0.409,334.748,331.8,0.2,332.05,0.016666666666666666,332.06666666666666,0.03333333333333333,332.1,0.2,332.3,1.3,right,6,0.017758595358827733,difficult
p05,1,4,1,nogo,left,right,0,strong,0.64,0.954,0,0.2,0.25,0.016666666666666666,0.26666666666666666,0.03333333333333333,0.3,0.2,0.5,1.3,right,6,0.017835426694546186,difficult
p05,1,4,2,nogo,left,right,0,weak,0.48,2.589,1.8,0.2,2.05,0.1,2.15,0.03333333333333333,2.183333333333333,0.11666666666666667,2.3,1.3,right,6,0.10663162923174241,difficult
p05,1,4,4,nogo,left,NA,1,weak,NA,NA,5.4,0.2,5.65,0.1,5.75,0.03333333333333333,5.783333333333333,0.11666666666666667,5.9,1.3,right,6,0.10660846253176715,difficult
p05,1,4,5,nogo,left,NA,1,weak,NA,NA,7.2,0.2,7.45,0.1,7.55,0.03333333333333333,7.583333333333333,0.11666666666666667,7.7,1.3,right,6,0.10658676207822282,difficult
p05,1,4,7,go,right,right,1,weak,0.374,13.629,12.6,0.2,12.85,0.1,12.95,0.03333333333333333,12.983333333333333,0.11666666666666667,13.1,1.3,right,6,0.10667737613403006,difficult
p05,1,4,8,nogo,left,right,0,strong,0.409,15.372,14.4,0.2,14.65,0.016666666666666666,14.666666666666666,0.03333333333333333,14.7,0.2,14.9,1.3,right,6,0.01746182699662313,difficult
p05,1,4,9,go,right,right,1,strong,0.445,17.114,16.2,0.2,16.45,0.016666666666666666,16.466666666666665,0.03333333333333333,16.5,0.2,16.7,1.3,right,6,0.017804635510401567,difficult
p05,1,4,10,catch,NA,right,1,catch,0.463,18.785,18,0.2,18.25,0.0,18.25,0.0,18.25,0.25,18.5,1.3,right,6,1.6421964573964942e-5,difficult
p05,1,4,11,go,right,right,1,weak,0.32,20.438,19.8,0.2,20.05,0.1,20.15,0.03333333333333333,20.183333333333334,0.11666666666666667,20.3,1.3,right,6,0.10630876167579117,difficult
p05,1,4,12,nogo,left,NA,1,weak,NA,NA,21.6,0.2,21.85,0.1,21.95,0.03333333333333333,21.983333333333334,0.11666666666666667,22.1,1.3,right,6,0.10681197759458883,difficult
p05,1,4,13,go,right,right,1,weak,0.391,24.101,23.4,0.2,23.65,0.1,23.75,0.03333333333333333,23.783333333333335,0.11666666666666667,23.9,1.3,right,6,0.10663368197765521,difficult
p05,1,4,14,nogo,left,right,0,strong,0.498,25.914,25.2,0.2,25.45,0.016666666666666666,25.466666666666665,0.03333333333333333,25.5,0.2,25.7,1.3,right,6,0.017758595358827733,difficult
p05,1,4,15,nogo,left,right,0,strong,0.463,27.585,27,0.2,27.25,0.016666666666666666,27.266666666666666,0.03333333333333333,27.3,0.2,27.5,1.3,right,6,0.017790266290830914,difficult
p05,1,4,16,go,right,right,1,strong,0.463,29.292,28.8,0.2,29.05,0.016666666666666666,29.066666666666666,0.03333333333333333,29.1,0.2,29.3,1.3,right,6,0.017576487499354698,difficult
p05,1,4,17,go,right,right,1,weak,0.356,30.981,30.6,0.2,30.85,0.1,30.95,0.03333333333333333,30.983333333333334,0.11666666666666667,31.1,1.3,right,6,0.10664101321162889,difficult
p05,1,4,18,go,right,right,1,strong,0.516,32.847,32.4,0.2,32.65,0.016666666666666666,32.666666666666664,0.03333333333333333,32.7,0.2,32.9,1.3,right,6,0.017811086995607184,difficult
p05,1,4,20,nogo,left,right,0,strong,0.427,36.385,36,0.2,36.25,0.016666666666666666,36.266666666666666,0.03333333333333333,36.3,0.2,36.5,1.3,right,6,0.01780053001948545,difficult
p05,1,4,21,go,right,right,1,weak,0.339,38.092,37.8,0.2,38.05,0.1,38.15,0.03333333333333333,38.18333333333333,0.11666666666666667,38.3,1.3,right,6,0.10664893094508443,difficult
p05,1,4,22,go,right,right,1,weak,0.285,39.834,39.6,0.2,39.85,0.1,39.95,0.03333333333333333,39.983333333333334,0.11666666666666667,40.1,1.3,right,6,0.10665244993742817,difficult
p05,1,4,23,nogo,left,NA,1,weak,NA,NA,41.4,0.2,41.65,0.1,41.75,0.03333333333333333,41.78333333333333,0.11666666666666667,41.9,1.3,right,6,0.1067902771410445,difficult
p05,1,4,24,nogo,left,NA,1,weak,NA,NA,43.2,0.2,43.45,0.1,43.55,0.03333333333333333,43.583333333333336,0.11666666666666667,43.7,1.3,right,6,0.10665978117140185,difficult
p05,1,4,25,nogo,left,NA,1,weak,NA,NA,45,0.2,45.25,0.1,45.35,0.03333333333333333,45.38333333333333,0.11666666666666667,45.5,1.3,right,6,0.10672869477366476,difficult
p05,1,4,26,nogo,left,right,0,strong,0.587,47.23,46.8,0.2,47.05,0.016666666666666666,47.06666666666667,0.03333333333333333,47.1,0.2,47.3,1.3,right,6,0.017743346392308013,difficult
p05,1,4,27,go,right,right,1,weak,0.321,48.759,48.6,0.2,48.85,0.1,48.95,0.03333333333333333,48.983333333333334,0.11666666666666667,49.1,1.3,right,6,0.10665978117140185,difficult
p05,1,4,28,catch,NA,right,1,catch,0.462,50.554,50.4,0.2,50.65,0.0,50.65,0.0,50.65,0.25,50.9,1.3,right,6,2.316670088475803e-5,difficult
p05,1,4,30,nogo,left,right,0,strong,0.516,54.234,54,0.2,54.25,0.016666666666666666,54.266666666666666,0.03333333333333333,54.3,0.2,54.5,1.3,right,6,0.017789093293686165,difficult
p05,1,4,32,catch,NA,right,1,catch,0.552,57.844,57.6,0.2,57.85,0.0,57.85,0.0,57.85,0.25,58.1,1.3,right,6,2.2580202312383335e-5,difficult
p05,1,4,33,go,right,right,1,weak,0.339,59.426,59.4,0.2,59.65,0.1,59.75,0.03333333333333333,59.78333333333333,0.11666666666666667,59.9,1.3,right,6,0.10667004490005638,difficult
p05,1,4,35,go,right,right,1,strong,0.427,63.141,63,0.2,63.25,0.016666666666666666,63.266666666666666,0.03333333333333333,63.3,0.2,63.5,1.3,right,6,0.017800236769289768,difficult
p05,1,4,36,go,right,right,1,strong,0.374,64.794,64.8,0.2,65.05,0.016666666666666666,65.06666666666666,0.03333333333333333,65.1,0.2,65.3,1.3,right,6,0.017875895106953976,difficult
p05,1,4,37,nogo,left,NA,1,weak,NA,NA,66.6,0.2,66.85,0.1,66.95,0.03333333333333333,66.98333333333333,0.11666666666666667,67.1,1.3,right,6,0.10664717144845781,difficult
p05,1,4,38,catch,NA,right,1,catch,0.48,68.35,68.4,0.2,68.65,0.0,68.65,0.0,68.65,0.25,68.9,1.3,right,6,1.6421964573964942e-5,difficult
p05,1,4,39,nogo,left,right,0,strong,0.409,69.986,70.2,0.2,70.45,0.016666666666666666,70.46666666666667,0.03333333333333333,70.5,0.2,70.7,1.3,right,6,0.01780287601377495,difficult
p05,1,4,41,go,right,right,1,strong,0.391,73.594,73.8,0.2,74.05,0.016666666666666666,74.06666666666666,0.03333333333333333,74.1,0.2,74.3,1.3,right,6,0.017797011027141707,difficult
p05,1,4,43,go,right,right,1,strong,0.409,77.239,77.4,0.2,77.65,0.016666666666666666,77.66666666666667,0.03333333333333333,77.7,0.2,77.9,1.3,right,6,0.017582059237611247,difficult
p05,1,4,44,go,right,right,1,strong,0.41,78.946,79.2,0.2,79.45,0.016666666666666666,79.46666666666667,0.03333333333333333,79.5,0.2,79.7,1.3,right,6,0.017838652436694247,difficult
p05,1,4,1,nogo,left,NA,1,weak,NA,NA,84.2,0.2,84.45,0.1,84.55,0.03333333333333333,84.58333333333333,0.11666666666666667,84.7,1.3,right,6,0.10659585280882311,difficult
p05,1,4,2,go,right,right,1,strong,0.338,87.71,86,0.2,86.25,0.016666666666666666,86.26666666666667,0.03333333333333333,86.3,0.2,86.5,1.3,right,6,0.017852435157692526,difficult
p05,1,4,3,go,right,right,1,weak,0.409,89.577,87.8,0.2,88.05,0.1,88.15,0.03333333333333333,88.18333333333334,0.11666666666666667,88.3,1.3,right,6,0.10659555955953692,difficult
p05,1,4,4,nogo,left,NA,1,weak,NA,NA,89.6,0.2,89.85,0.1,89.95,0.03333333333333333,89.98333333333333,0.11666666666666667,90.1,1.3,right,6,0.10663808071785752,difficult
p05,1,4,5,go,right,right,1,weak,0.303,93.061,91.4,0.2,91.65,0.1,91.75,0.03333333333333333,91.78333333333333,0.11666666666666667,91.9,1.3,right,6,0.10666271366517321,difficult
p05,1,4,7,nogo,left,right,0,strong,0.481,96.866,95,0.2,95.25,0.016666666666666666,95.26666666666667,0.03333333333333333,95.3,0.2,95.5,1.3,right,6,0.017856247399322456,difficult
p05,1,4,8,nogo,left,right,0,strong,0.498,98.59,96.8,0.2,97.05,0.016666666666666666,97.06666666666666,0.03333333333333333,97.1,0.2,97.3,1.3,right,6,0.017797890774090774,difficult
p05,1,4,9,catch,NA,right,1,catch,0.499,100.244,98.6,0.2,98.85,0.0,98.85,0.0,98.85,0.25,99.1,1.3,right,6,1.759496171871433e-5,difficult
p05,1,4,10,nogo,left,NA,1,weak,NA,NA,100.4,0.2,100.65,0.1,100.75,0.03333333333333333,100.78333333333333,0.11666666666666667,100.9,1.3,right,6,0.10667796263260243,difficult
p05,1,4,11,go,right,right,1,strong,0.516,103.764,102.2,0.2,102.45,0.016666666666666666,102.46666666666667,0.03333333333333333,102.5,0.2,102.7,1.3,right,6,0.017764753595656657,difficult
p05,1,4,12,nogo,left,NA,1,weak,NA,NA,104,0.2,104.25,0.1,104.35,0.03333333333333333,104.38333333333334,0.11666666666666667,104.5,1.3,right,6,0.1066808951254643,difficult
p05,1,4,14,catch,NA,right,1,catch,0.445,109.062,107.6,0.2,107.85,0.0,107.85,0.0,107.85,0.25,108.1,1.3,right,6,1.671521386015229e-5,difficult
p05,1,4,15,nogo,left,right,0,strong,0.481,110.804,109.4,0.2,109.65,0.016666666666666666,109.66666666666667,0.03333333333333333,109.7,0.2,109.9,1.3,right,6,0.017805222008973942,difficult
p05,1,4,17,go,right,right,1,weak,0.391,118.271,116.6,0.2,116.85,0.1,116.95,0.03333333333333333,116.98333333333333,0.11666666666666667,117.1,1.3,right,6,0.10678558515064651,difficult
p05,1,4,18,nogo,left,right,0,strong,0.463,120.048,118.4,0.2,118.65,0.016666666666666666,118.66666666666667,0.03333333333333333,118.7,0.2,118.9,1.3,right,6,0.01775243712199881,difficult
p05,1,4,19,go,right,right,1,weak,0.356,121.738,120.2,0.2,120.45,0.1,120.55,0.03333333333333333,120.58333333333333,0.11666666666666667,120.7,1.3,right,6,0.10674482348895253,difficult
p05,1,4,20,nogo,left,right,0,strong,0.498,123.586,122,0.2,122.25,0.016666666666666666,122.26666666666667,0.03333333333333333,122.3,0.2,122.5,1.3,right,6,0.017809620749176247,difficult
p05,1,4,21,nogo,left,NA,1,weak,NA,NA,123.8,0.2,124.05,0.1,124.15,0.03333333333333333,124.18333333333334,0.11666666666666667,124.3,1.3,right,6,0.10675244797312189,difficult
p05,1,4,23,go,right,right,1,weak,0.338,128.937,127.4,0.2,127.65,0.1,127.75,0.03333333333333333,127.78333333333333,0.11666666666666667,127.9,1.3,right,6,0.10659995829973923,difficult
p05,1,4,25,go,right,right,1,strong,0.498,132.724,131,0.2,131.25,0.016666666666666666,131.26666666666668,0.03333333333333333,131.3,0.2,131.5,1.3,right,6,0.017766806341569463,difficult
p05,1,4,26,nogo,left,right,0,strong,0.48,134.413,132.8,0.2,133.05,0.016666666666666666,133.06666666666666,0.03333333333333333,133.1,0.2,133.3,1.3,right,6,0.01762018165572954,difficult
p05,1,4,27,catch,NA,right,1,catch,0.463,136.049,134.6,0.2,134.85,0.0,134.85,0.0,134.85,0.25,135.1,1.3,right,6,1.7008464055834338e-5,difficult
p05,1,4,28,go,right,right,1,strong,0.479,137.772,136.4,0.2,136.65,0.016666666666666666,136.66666666666666,0.03333333333333333,136.7,0.2,136.9,1.3,right,6,0.01769818598859274,difficult
p05,1,4,30,go,right,right,1,strong,0.426,141.345,140,0.2,140.25,0.016666666666666666,140.26666666666668,0.03333333333333333,140.3,0.2,140.5,1.3,right,6,0.01831518266317289,difficult
p05,1,4,31,nogo,left,right,0,strong,0.409,143.035,141.8,0.2,142.05,0.016666666666666666,142.06666666666666,0.03333333333333333,142.1,0.2,142.3,1.3,right,6,0.017500829162599985,difficult
p05,1,4,32,go,right,right,1,weak,0.498,144.919,143.6,0.2,143.85,0.1,143.95,0.03333333333333333,143.98333333333332,0.11666666666666667,144.1,1.3,right,6,0.10686476248156396,difficult
p05,1,4,33,go,right,right,1,strong,0.427,146.555,145.4,0.2,145.65,0.016666666666666666,145.66666666666666,0.03333333333333333,145.7,0.2,145.9,1.3,right,6,0.018081462915688462,difficult
p05,1,4,34,catch,NA,right,1,catch,0.445,148.227,147.2,0.2,147.45,0.0,147.45,0.0,147.45,0.25,147.7,1.3,right,6,1.671521476964699e-5,difficult
p05,1,4,35,go,right,right,1,weak,0.818,150.395,149,0.2,149.25,0.1,149.35,0.03333333333333333,149.38333333333333,0.11666666666666667,149.5,1.3,right,6,0.10669526434503496,difficult
p05,1,4,36,go,right,right,1,strong,0.445,151.729,150.8,0.2,151.05,0.016666666666666666,151.06666666666666,0.03333333333333333,151.1,0.2,151.3,1.3,right,6,0.0177750173234017,difficult
p05,1,4,37,nogo,left,right,0,strong,0.48,153.471,152.6,0.2,152.85,0.016666666666666666,152.86666666666667,0.03333333333333333,152.9,0.2,153.1,1.3,right,6,0.017859179893093824,difficult
p05,1,4,38,go,right,right,1,weak,0.338,155.125,154.4,0.2,154.65,0.1,154.75,0.03333333333333333,154.78333333333333,0.11666666666666667,154.9,1.3,right,6,0.10653309744338912,difficult
p05,1,4,39,nogo,left,right,0,weak,0.392,156.973,156.2,0.2,156.45,0.1,156.55,0.03333333333333333,156.58333333333334,0.11666666666666667,156.7,1.3,right,6,0.10660025154902542,difficult
p05,1,4,40,nogo,left,NA,1,weak,NA,NA,158,0.2,158.25,0.1,158.35,0.03333333333333333,158.38333333333333,0.11666666666666667,158.5,1.3,right,6,0.10664394570540026,difficult
p05,1,4,41,go,right,right,1,strong,0.427,160.511,159.8,0.2,160.05,0.016666666666666666,160.06666666666666,0.03333333333333333,160.1,0.2,160.3,1.3,right,6,0.01773278941436729,difficult
p05,1,4,43,nogo,left,NA,1,weak,NA,NA,163.4,0.2,163.65,0.1,163.75,0.03333333333333333,163.78333333333333,0.11666666666666667,163.9,1.3,right,6,0.10666036766997422,difficult
p05,1,4,1,nogo,left,NA,1,strong,NA,NA,167.4,0.2,167.65,0.016666666666666666,167.66666666666666,0.03333333333333333,167.7,0.2,167.9,1.3,right,6,0.017520183620945318,difficult
p05,1,4,2,go,right,right,1,strong,0.409,171.889,169.2,0.2,169.45,0.016666666666666666,169.46666666666667,0.03333333333333333,169.5,0.2,169.7,1.3,right,6,0.017902874049468664,difficult
p05,1,4,4,nogo,left,NA,1,weak,NA,NA,174.6,0.2,174.85,0.1,174.95,0.03333333333333333,174.98333333333332,0.11666666666666667,175.1,1.3,right,6,0.10679555563001486,difficult
p05,1,4,5,go,right,right,1,strong,0.463,179.285,176.4,0.2,176.65,0.016666666666666666,176.66666666666666,0.03333333333333333,176.7,0.2,176.9,1.3,right,6,0.017679124779533595,difficult
p05,1,4,6,nogo,left,NA,1,weak,NA,NA,178.2,0.2,178.45,0.1,178.55,0.03333333333333333,178.58333333333334,0.11666666666666667,178.7,1.3,right,6,0.10653778943378711,difficult
p05,1,4,8,nogo,left,right,0,strong,0.409,184.654,181.8,0.2,182.05,0.016666666666666666,182.06666666666666,0.03333333333333333,182.1,0.2,182.3,1.3,right,6,0.017820470976403158,difficult
p05,1,4,9,catch,NA,right,1,catch,0.445,186.343,183.6,0.2,183.85,0.0,183.85,0.0,183.85,0.25,184.1,1.3,right,6,1.671521476964699e-5,difficult
p05,1,4,10,go,right,right,1,weak,0.445,188.138,185.4,0.2,185.65,0.1,185.75,0.03333333333333333,185.78333333333333,0.11666666666666667,185.9,1.3,right,6,0.1066829478722866,difficult
p05,1,4,11,nogo,left,NA,1,weak,NA,NA,187.2,0.2,187.45,0.1,187.55,0.03333333333333333,187.58333333333334,0.11666666666666667,187.7,1.3,right,6,0.10665450268243148,difficult
p05,1,4,12,nogo,left,right,0,strong,1.014,192.21,189,0.2,189.25,0.016666666666666666,189.26666666666668,0.03333333333333333,189.3,0.2,189.5,1.3,right,6,0.017781175560230622,difficult
p05,1,4,13,go,right,right,1,strong,0.569,193.472,190.8,0.2,191.05,0.016666666666666666,191.06666666666666,0.03333333333333333,191.1,0.2,191.3,1.3,right,6,0.017685576265648706,difficult
p05,1,4,14,go,right,right,1,weak,0.658,195.356,192.6,0.2,192.85,0.1,192.95,0.03333333333333333,192.98333333333332,0.11666666666666667,193.1,1.3,right,6,0.1068281063098766,difficult
p05,1,4,15,catch,NA,right,1,catch,0.552,196.903,194.4,0.2,194.65,0.0,194.65,0.0,194.65,0.25,194.9,1.3,right,6,1.6421964573964942e-5,difficult
p05,1,4,16,nogo,left,right,0,strong,0.498,198.556,196.2,0.2,196.45,0.016666666666666666,196.46666666666667,0.03333333333333333,196.5,0.2,196.7,1.3,right,6,0.017885279086840455,difficult
p05,1,4,17,catch,NA,right,1,catch,0.48,200.192,198,0.2,198.25,0.0,198.25,0.0,198.25,0.25,198.5,1.3,right,6,1.671521386015229e-5,difficult
p05,1,4,18,go,right,right,1,strong,0.427,201.845,199.8,0.2,200.05,0.016666666666666666,200.06666666666666,0.03333333333333333,200.1,0.2,200.3,1.3,right,6,0.017817831731917977,difficult
p05,1,4,19,go,right,right,1,weak,0.356,203.57,201.6,0.2,201.85,0.1,201.95,0.03333333333333333,201.98333333333332,0.11666666666666667,202.1,1.3,right,6,0.10693162333700457,difficult
p05,1,4,21,nogo,left,NA,1,weak,NA,NA,208.8,0.2,209.05,0.1,209.15,0.03333333333333333,209.18333333333334,0.11666666666666667,209.3,1.3,right,6,0.10662253850114212,difficult
p05,1,4,22,nogo,left,NA,1,weak,NA,NA,210.6,0.2,210.85,0.1,210.95,0.03333333333333333,210.98333333333332,0.11666666666666667,211.1,1.3,right,6,0.10666593940823077,difficult
p05,1,4,23,go,right,right,1,weak,0.285,214.646,212.4,0.2,212.65,0.1,212.75,0.03333333333333333,212.78333333333333,0.11666666666666667,212.9,1.3,right,6,0.10669936983595107,difficult
p05,1,4,24,go,right,right,1,strong,0.463,216.53,214.2,0.2,214.45,0.016666666666666666,214.46666666666667,0.03333333333333333,214.5,0.2,214.7,1.3,right,6,0.017890850825097004,difficult
p05,1,4,25,go,right,right,1,strong,0.534,218.308,216,0.2,216.25,0.016666666666666666,216.26666666666668,0.03333333333333333,216.3,0.2,216.5,1.3,right,6,0.017730150170791603,difficult
p05,1,4,26,nogo,left,NA,1,weak,NA,NA,217.8,0.2,218.05,0.1,218.15,0.03333333333333333,218.18333333333334,0.11666666666666667,218.3,1.3,right,6,0.10640612046609021,difficult
p05,1,4,28,nogo,left,right,0,strong,1.245,224.441,221.4,0.2,221.65,0.016666666666666666,221.66666666666666,0.03333333333333333,221.7,0.2,221.9,1.3,right,6,0.01780258276448876,difficult
p05,1,4,29,go,right,right,1,strong,0.48,225.383,223.2,0.2,223.45,0.016666666666666666,223.46666666666667,0.03333333333333333,223.5,0.2,223.7,1.3,right,6,0.017769445586054644,difficult
p05,1,4,30,nogo,left,right,0,strong,0.409,227.019,225,0.2,225.25,0.016666666666666666,225.26666666666668,0.03333333333333333,225.3,0.2,225.5,1.3,right,6,0.017672380044132296,difficult
p05,1,4,31,go,right,right,1,weak,0.338,228.743,226.8,0.2,227.05,0.1,227.15,0.03333333333333333,227.18333333333334,0.11666666666666667,227.3,1.3,right,6,0.10672634877846576,difficult
p05,1,4,32,nogo,left,NA,1,weak,NA,NA,228.6,0.2,228.85,0.1,228.95,0.03333333333333333,228.98333333333332,0.11666666666666667,229.1,1.3,right,6,0.10671491205357597,difficult
p05,1,4,33,go,right,right,1,weak,0.356,232.352,230.4,0.2,230.65,0.1,230.75,0.03333333333333333,230.78333333333333,0.11666666666666667,230.9,1.3,right,6,0.10680757885438652,difficult
p05,1,4,34,go,right,right,1,weak,0.587,234.379,232.2,0.2,232.45,0.1,232.55,0.03333333333333333,232.58333333333334,0.11666666666666667,232.7,1.3,right,6,0.1066785491311748,difficult
p05,1,4,35,go,right,right,1,weak,0.463,236.05,234,0.2,234.25,0.1,234.35,0.03333333333333333,234.38333333333333,0.11666666666666667,234.5,1.3,right,6,0.1063506963355394,difficult
p05,1,4,36,nogo,left,right,0,strong,0.498,237.792,235.8,0.2,236.05,0.016666666666666666,236.06666666666666,0.03333333333333333,236.1,0.2,236.3,1.3,right,6,0.017797011026232212,difficult
p05,1,4,37,nogo,left,NA,1,weak,NA,NA,237.6,0.2,237.85,0.1,237.95,0.03333333333333333,237.98333333333332,0.11666666666666667,238.1,1.3,right,6,0.10665684867763048,difficult
p05,1,4,38,catch,NA,right,1,catch,0.48,241.223,239.4,0.2,239.65,0.0,239.65,0.0,239.65,0.25,239.9,1.3,right,6,1.7301713342021685e-5,difficult
p05,1,4,40,go,right,right,1,strong,0.427,244.797,243,0.2,243.25,0.016666666666666666,243.26666666666668,0.03333333333333333,243.3,0.2,243.5,1.3,right,6,0.01779378528408415,difficult
p05,1,4,41,nogo,left,right,0,strong,0.445,246.521,244.8,0.2,245.05,0.016666666666666666,245.06666666666666,0.03333333333333333,245.1,0.2,245.3,1.3,right,6,0.017749211378941254,difficult
p05,1,4,1,nogo,left,NA,1,weak,NA,NA,252.6,0.2,252.85,0.1,252.95,0.03333333333333333,252.98333333333332,0.11666666666666667,253.1,1.3,right,6,0.10656418187681993,difficult
p05,1,4,3,go,right,right,1,weak,0.232,260.139,256.2,0.2,256.45,0.1,256.55,0.03333333333333333,256.5833333333333,0.11666666666666667,256.7,1.3,right,6,0.1066495174436568,difficult
p05,1,4,4,nogo,left,right,0,strong,0.445,262.059,258,0.2,258.25,0.016666666666666666,258.26666666666665,0.03333333333333333,258.3,0.2,258.5,1.3,right,6,0.017864165131868504,difficult
p05,1,4,5,nogo,left,right,0,strong,0.374,263.695,259.8,0.2,260.05,0.016666666666666666,260.06666666666666,0.03333333333333333,260.1,0.2,260.3,1.3,right,6,0.017788506794204295,difficult
p05,1,4,6,go,right,right,1,strong,0.427,265.455,261.6,0.2,261.85,0.016666666666666666,261.8666666666667,0.03333333333333333,261.9,0.2,262.1,1.3,right,6,0.017821057474975532,difficult
p05,1,4,7,go,right,right,1,strong,0.481,267.215,263.4,0.2,263.65,0.016666666666666666,263.6666666666667,0.03333333333333333,263.7,0.2,263.9,1.3,right,6,0.017667101555161935,difficult
p05,1,4,8,go,right,right,1,strong,0.427,268.868,265.2,0.2,265.45,0.016666666666666666,265.46666666666664,0.03333333333333333,265.5,0.2,265.7,1.3,right,6,0.017759181857400108,difficult
p05,1,4,9,nogo,left,right,0,strong,0.374,270.522,267,0.2,267.25,0.016666666666666666,267.26666666666665,0.03333333333333333,267.3,0.2,267.5,1.3,right,6,0.017777363318600692,difficult
p05,1,4,10,go,right,right,1,strong,0.374,272.228,268.8,0.2,269.05,0.016666666666666666,269.06666666666666,0.03333333333333333,269.1,0.2,269.3,1.3,right,6,0.01773748140385578,difficult
p05,1,4,11,go,right,right,1,weak,0.356,274.006,270.6,0.2,270.85,0.1,270.95,0.03333333333333333,270.98333333333335,0.11666666666666667,271.1,1.3,right,6,0.1066586081733476,difficult
p05,1,4,13,go,right,right,1,weak,0.392,279.677,276,0.2,276.25,0.1,276.35,0.03333333333333333,276.3833333333333,0.11666666666666667,276.5,1.3,right,6,0.10665039719151537,difficult
p05,1,4,14,go,right,right,1,weak,0.374,281.455,277.8,0.2,278.05,0.1,278.15,0.03333333333333333,278.18333333333334,0.11666666666666667,278.3,1.3,right,6,0.10684218228016107,difficult
p05,1,4,15,catch,NA,right,1,catch,0.498,283.233,279.6,0.2,279.85,0.0,279.85,0.0,279.85,0.25,280.1,1.3,right,6,1.671521386015229e-5,difficult
p05,1,4,16,go,right,right,1,weak,0.303,284.833,281.4,0.2,281.65,0.1,281.75,0.03333333333333333,281.78333333333336,0.11666666666666667,281.9,1.3,right,6,0.10671813779572403,difficult
p05,1,4,18,nogo,left,right,0,strong,0.427,288.584,285,0.2,285.25,0.016666666666666666,285.26666666666665,0.03333333333333333,285.3,0.2,285.5,1.3,right,6,0.01772985692059592,difficult
p05,1,4,20,go,right,right,1,strong,0.392,292.175,288.6,0.2,288.85,0.016666666666666666,288.8666666666667,0.03333333333333333,288.9,0.2,289.1,1.3,right,6,0.01783542669363669,difficult
p05,1,4,21,nogo,left,NA,1,weak,NA,NA,290.4,0.2,290.65,0.1,290.75,0.03333333333333333,290.78333333333336,0.11666666666666667,290.9,1.3,right,6,0.10663573472265853,difficult
p05,1,4,22,nogo,left,NA,1,weak,NA,NA,292.2,0.2,292.45,0.1,292.55,0.03333333333333333,292.5833333333333,0.11666666666666667,292.7,1.3,right,6,0.10668705336320272,difficult
p05,1,4,23,nogo,left,right,0,strong,0.48,297.562,294,0.2,294.25,0.016666666666666666,294.26666666666665,0.03333333333333333,294.3,0.2,294.5,1.3,right,6,0.017725458180393616,difficult
p05,1,4,24,catch,NA,right,1,catch,0.534,299.269,295.8,0.2,296.05,0.0,296.05,0.0,296.05,0.25,296.3,1.3,right,6,1.671521386015229e-5,difficult
p05,1,4,25,catch,NA,right,1,catch,0.48,300.868,297.6,0.2,297.85,0.0,297.85,0.0,297.85,0.25,298.1,1.3,right,6,1.671521386015229e-5,difficult
p05,1,4,26,nogo,left,NA,1,weak,NA,NA,299.4,0.2,299.65,0.1,299.75,0.03333333333333333,299.78333333333336,0.11666666666666667,299.9,1.3,right,6,0.10683543754385028,difficult
p05,1,4,28,go,right,right,1,weak,0.338,308.158,304.8,0.2,305.05,0.1,305.15,0.03333333333333333,305.18333333333334,0.11666666666666667,305.3,1.3,right,6,0.10667942887903337,difficult
p05,1,4,29,nogo,left,right,0,strong,0.409,309.935,306.6,0.2,306.85,0.016666666666666666,306.8666666666667,0.03333333333333333,306.9,0.2,307.1,1.3,right,6,0.0178753086083816,difficult
p05,1,4,31,nogo,left,NA,1,weak,NA,NA,310.2,0.2,310.45,0.1,310.55,0.03333333333333333,310.5833333333333,0.11666666666666667,310.7,1.3,right,6,0.10669497109574877,difficult
p05,1,4,32,nogo,left,right,0,strong,0.338,315.287,312,0.2,312.25,0.016666666666666666,312.26666666666665,0.03333333333333333,312.3,0.2,312.5,1.3,right,6,0.01767413953984942,difficult
p05,1,4,33,nogo,left,NA,1,weak,NA,NA,313.8,0.2,314.05,0.1,314.15,0.03333333333333333,314.18333333333334,0.11666666666666667,314.3,1.3,right,6,0.10664570520202687,difficult
p05,1,4,34,go,right,right,1,strong,0.445,318.896,315.6,0.2,315.85,0.016666666666666666,315.8666666666667,0.03333333333333333,315.9,0.2,316.1,1.3,right,6,0.017766806341569463,difficult
p05,1,4,35,nogo,left,right,0,strong,0.445,320.602,317.4,0.2,317.65,0.016666666666666666,317.6666666666667,0.03333333333333333,317.7,0.2,317.9,1.3,right,6,0.017815485736718983,difficult
p05,1,4,36,go,right,right,1,weak,0.48,322.433,319.2,0.2,319.45,0.1,319.55,0.03333333333333333,319.5833333333333,0.11666666666666667,319.7,1.3,right,6,0.10655890338875906,difficult
p05,1,4,37,go,right,right,1,strong,0.463,324.122,321,0.2,321.25,0.016666666666666666,321.26666666666665,0.03333333333333333,321.3,0.2,321.5,1.3,right,6,0.01781196674437524,difficult
p05,1,4,38,nogo,left,NA,1,weak,NA,NA,322.8,0.2,323.05,0.1,323.15,0.03333333333333333,323.18333333333334,0.11666666666666667,323.3,1.3,right,6,0.10662341824991017,difficult
p05,1,4,39,go,right,right,1,strong,0.427,327.589,324.6,0.2,324.85,0.016666666666666666,324.8666666666667,0.03333333333333333,324.9,0.2,325.1,1.3,right,6,0.01790170105141442,difficult
p05,1,4,40,catch,NA,right,1,catch,0.462,329.278,326.4,0.2,326.65,0.0,326.65,0.0,326.65,0.25,326.9,1.3,right,6,1.7888211004901677e-5,difficult
p05,1,4,42,nogo,left,NA,1,weak,NA,NA,330,0.2,330.25,0.1,330.35,0.03333333333333333,330.3833333333333,0.11666666666666667,330.5,1.3,right,6,0.10658881482322613,difficult
p05,1,4,43,go,right,right,1,weak,0.214,334.54,331.8,0.2,332.05,0.1,332.15,0.03333333333333333,332.18333333333334,0.11666666666666667,332.3,1.3,right,6,0.10665567568048573,difficult
p06,1,1,1,go,right,right,1,strong,0.427,0.752,0,0.2,0.25,0.016666666666666666,0.26666666666666666,0.03333333333333333,0.3,0.2,0.5,1.3,right,12,0.01790346054804104,easy
p06,1,1,2,nogo,left,right,0,strong,0.427,2.459,1.8,0.2,2.05,0.016666666666666666,2.066666666666667,0.03333333333333333,2.1,0.2,2.3,1.3,right,12,0.017818418229580857,easy
p06,1,1,3,nogo,left,right,0,weak,0.196,4.13,3.6,0.2,3.85,0.2,4.05,0.03333333333333333,4.083333333333333,0.016666666666666666,4.1,1.3,right,12,0.21326237871653575,easy
