subid,session,run,trial,trial_type,side,response,correct,strength,response_time,cumulative_response_time,fixation_onset,fixation_dur,stim_onset,stim_dur,blank_onset,blank_dur,mask_onset,mask_dur,response_onset,response_dur,go_side,Staircase_stimulus,Presentation Duration
p05,1,4,1,nogo,left,right,0,strong,0.64,0.954,0.0,0.2,0.25,0.016666666666666666,0.26666666666666666,0.03333333333333333,0.3,0.2,0.5,1.3,right,6,0.017835426694546186
p05,1,4,2,nogo,left,right,0,weak,0.48,2.589,1.8,0.2,2.05,0.1,2.15,0.03333333333333333,2.183333333333333,0.11666666666666667,2.3,1.3,right,6,0.10663162923174241
p05,1,4,3,Rest,Rest,Rest,Rest,Rest,Rest,Rest,3.6,1.8,Rest,Rest,Rest,Rest,Rest,Rest,Rest,Rest,Rest,Rest,1.8
p05,1,4,4,nogo,left,NA,1,weak,NA,NA,5.4,0.2,5.65,0.1,5.75,0.03333333333333333,5.783333333333333,0.11666666666666667,5.9,1.3,right,6,0.10660846253176715
p05,1,4,5,nogo,left,NA,1,weak,NA,NA,7.2,0.2,7.45,0.1,7.55,0.03333333333333333,7.583333333333333,0.11666666666666667,7.7,1.3,right,6,0.10658676207822282
p05,1,4,6,Rest,Rest,Rest,Rest,Rest,Rest,Rest,9.0,3.6,Rest,Rest,Rest,Rest,Rest,Rest,Rest,Rest,Rest,Rest,3.6
p05,1,4,7,go,right,right,1,weak,0.374,13.629,12.6,0.2,12.85,0.1,12.95,0.03333333333333333,12.983333333333333,0.11666666666666667,13.1,1.3,right,6,0.10667737613403006
p05,1,4,8,nogo,left,right,0,strong,0.409,15.372,14.4,0.2,14.65,0.016666666666666666,14.666666666666666,0.03333333333333333,14.7,0.2,14.9,1.3,right,6,0.01746182699662313
p05,1,4,9,go,right,right,1,strong,0.445,17.114,16.2,0.2,16.45,0.016666666666666666,16.466666666666665,0.03333333333333333,16.5,0.2,16.7,1.3,right,6,0.017804635510401567
p05,1,4,10,catch,NA,right,1,catch,0.463,18.785,18.0,0.2,18.25,0.0,18.25,0.0,18.25,0.25,18.5,1.3,right,6,1.6421964573964942e-05
p05,1,4,11,go,right,right,1,weak,0.32,20.438,19.8,0.2,20.05,0.1,20.15,0.03333333333333333,20.183333333333334,0.11666666666666667,20.3,1.3,right,6,0.10630876167579117
p05,1,4,12,nogo,left,NA,1,weak,NA,NA,21.6,0.2,21.85,0.1,21.95,0.03333333333333333,21.983333333333334,0.11666666666666667,22.1,1.3,right,6,0.10681197759458883
p05,1,4,13,go,right,right,1,weak,0.391,24.101,23.4,0.2,23.65,0.1,23.75,0.03333333333333333,23.783333333333335,0.11666666666666667,23.9,1.3,right,6,0.10663368197765521
p05,1,4,14,nogo,left,right,0,strong,0.498,25.914,25.2,0.2,25.45,0.016666666666666666,25.466666666666665,0.03333333333333333,25.5,0.2,25.7,1.3,right,6,0.017758595358827733
p05,1,4,15,nogo,left,right,0,strong,0.463,27.585,27.0,0.2,27.25,0.016666666666666666,27.266666666666666,0.03333333333333333,27.3,0.2,27.5,1.3,right,6,0.017790266290830914
p05,1,4,16,go,right,right,1,strong,0.463,29.292,28.8,0.2,29.05,0.016666666666666666,29.066666666666666,0.03333333333333333,29.1,0.2,29.3,1.3,right,6,0.017576487499354698
p05,1,4,17,go,right,right,1,weak,0.356,30.981,30.6,0.2,30.85,0.1,30.95,0.03333333333333333,30.983333333333334,0.11666666666666667,31.1,1.3,right,6,0.10664101321162889
p05,1,4,18,go,right,right,1,strong,0.516,32.847,32.4,0.2,32.65,0.016666666666666666,32.666666666666664,0.03333333333333333,32.7,0.2,32.9,1.3,right,6,0.017811086995607184
p05,1,4,19,Rest,Rest,Rest,Rest,Rest,Rest,Rest,34.2,1.8,Rest,Rest,Rest,Rest,Rest,Rest,Rest,Rest,Rest,Rest,1.8
p05,1,4,20,nogo,left,right,0,strong,0.427,36.385,36.0,0.2,36.25,0.016666666666666666,36.266666666666666,0.03333333333333333,36.3,0.2,36.5,1.3,right,6,0.01780053001948545
p05,1,4,21,go,right,right,1,weak,0.339,38.092,37.8,0.2,38.05,0.1,38.15,0.03333333333333333,38.18333333333333,0.11666666666666667,38.3,1.3,right,6,0.10664893094508443
p05,1,4,22,go,right,right,1,weak,0.285,39.834,39.6,0.2,39.85,0.1,39.95,0.03333333333333333,39.983333333333334,0.11666666666666667,40.1,1.3,right,6,0.10665244993742817
p05,1,4,23,nogo,left,NA,1,weak,NA,NA,41.4,0.2,41.65,0.1,41.75,0.03333333333333333,41.78333333333333,0.11666666666666667,41.9,1.3,right,6,0.1067902771410445
p05,1,4,24,nogo,left,NA,1,weak,NA,NA,43.2,0.2,43.45,0.1,43.55,0.03333333333333333,43.583333333333336,0.11666666666666667,43.7,1.3,right,6,0.10665978117140185
p05,1,4,25,nogo,left,NA,1,weak,NA,NA,45.0,0.2,45.25,0.1,45.35,0.03333333333333333,45.38333333333333,0.11666666666666667,45.5,1.3,right,6,0.10672869477366476
p05,1,4,26,nogo,left,right,0,strong,0.587,47.23,46.8,0.2,47.05,0.016666666666666666,47.06666666666667,0.03333333333333333,47.1,0.2,47.3,1.3,right,6,0.017743346392308013
p05,1,4,27,go,right,right,1,weak,0.321,48.759,48.6,0.2,48.85,0.1,48.95,0.03333333333333333,48.983333333333334,0.11666666666666667,49.1,1.3,right,6,0.10665978117140185
p05,1,4,28,catch,NA,right,1,catch,0.462,50.554,50.4,0.2,50.65,0.0,50.65,0.0,50.65,0.25,50.9,1.3,right,6,2.316670088475803e-05
p05,1,4,29,Rest,Rest,Rest,Rest,Rest,Rest,Rest,52.2,1.8,Rest,Rest,Rest,Rest,Rest,Rest,Rest,Rest,Rest,Rest,1.8
p05,1,4,30,nogo,left,right,0,strong,0.516,54.234,54.0,0.2,54.25,0.016666666666666666,54.266666666666666,0.03333333333333333,54.3,0.2,54.5,1.3,right,6,0.017789093293686165
p05,1,4,31,Rest,Rest,Rest,Rest,Rest,Rest,Rest,55.8,1.8,Rest,Rest,Rest,Rest,Rest,Rest,Rest,Rest,Rest,Rest,1.8
p05,1,4,32,catch,NA,right,1,catch,0.552,57.844,57.6,0.2,57.85,0.0,57.85,0.0,57.85,0.25,58.1,1.3,right,6,2.2580202312383335e-05
p05,1,4,33,go,right,right,1,weak,0.339,59.426,59.4,0.2,59.65,0.1,59.75,0.03333333333333333,59.78333333333333,0.11666666666666667,59.9,1.3,right,6,0.10667004490005638
p05,1,4,34,Rest,Rest,Rest,Rest,Rest,Rest,Rest,61.2,1.8,Rest,Rest,Rest,Rest,Rest,Rest,Rest,Rest,Rest,Rest,1.8
p05,1,4,35,go,right,right,1,strong,0.427,63.141,63.0,0.2,63.25,0.016666666666666666,63.266666666666666,0.03333333333333333,63.3,0.2,63.5,1.3,right,6,0.017800236769289768
p05,1,4,36,go,right,right,1,strong,0.374,64.794,64.8,0.2,65.05,0.016666666666666666,65.06666666666666,0.03333333333333333,65.1,0.2,65.3,1.3,right,6,0.017875895106953976
p05,1,4,37,nogo,left,NA,1,weak,NA,NA,66.6,0.2,66.85,0.1,66.95,0.03333333333333333,66.98333333333333,0.11666666666666667,67.1,1.3,right,6,0.10664717144845781
p05,1,4,38,catch,NA,right,1,catch,0.48,68.35,68.4,0.2,68.65,0.0,68.65,0.0,68.65,0.25,68.9,1.3,right,6,1.6421964573964942e-05
p05,1,4,39,nogo,left,right,0,strong,0.409,69.986,70.2,0.2,70.45,0.016666666666666666,70.46666666666667,0.03333333333333333,70.5,0.2,70.7,1.3,right,6,0.01780287601377495
p05,1,4,40,Rest,Rest,Rest,Rest,Rest,Rest,Rest,72.0,1.8,Rest,Rest,Rest,Rest,Rest,Rest,Rest,Rest,Rest,Rest,1.8
p05,1,4,41,go,right,right,1,strong,0.391,73.594,73.8,0.2,74.05,0.016666666666666666,74.06666666666666,0.03333333333333333,74.1,0.2,74.3,1.3,right,6,0.017797011027141707
p05,1,4,42,Rest,Rest,Rest,Rest,Rest,Rest,Rest,75.6,1.8,Rest,Rest,Rest,Rest,Rest,Rest,Rest,Rest,Rest,Rest,1.8
p05,1,4,43,go,right,right,1,strong,0.409,77.239,77.4,0.2,77.65,0.016666666666666666,77.66666666666667,0.03333333333333333,77.7,0.2,77.9,1.3,right,6,0.017582059237611247
p05,1,4,44,go,right,right,1,strong,0.41,78.946,79.2,0.2,79.45,0.016666666666666666,79.46666666666667,0.03333333333333333,79.5,0.2,79.7,1.3,right,6,0.017838652436694247
p05,1,4,1,nogo,left,NA,1,weak,NA,NA,84.2,0.2,84.45,0.1,84.55,0.03333333333333333,84.58333333333333,0.11666666666666667,84.7,1.3,right,6,0.10659585280882311
p05,1,4,2,go,right,right,1,strong,0.338,87.71,86.0,0.2,86.25,0.016666666666666666,86.26666666666667,0.03333333333333333,86.3,0.2,86.5,1.3,right,6,0.017852435157692526
p05,1,4,3,go,right,right,1,weak,0.409,89.577,87.8,0.2,88.05,0.1,88.15,0.03333333333333333,88.18333333333334,0.11666666666666667,88.3,1.3,right,6,0.10659555955953692
p05,1,4,4,nogo,left,NA,1,weak,NA,NA,89.6,0.2,89.85,0.1,89.95,0.03333333333333333,89.98333333333333,0.11666666666666667,90.1,1.3,right,6,0.10663808071785752
p05,1,4,5,go,right,right,1,weak,0.303,93.061,91.4,0.2,91.65,0.1,91.75,0.03333333333333333,91.78333333333333,0.11666666666666667,91.9,1.3,right,6,0.10666271366517321
p05,1,4,6,Rest,Rest,Rest,Rest,Rest,Rest,Rest,93.2,1.8,Rest,Rest,Rest,Rest,Rest,Rest,Rest,Rest,Rest,Rest,1.8
p05,1,4,7,nogo,left,right,0,strong,0.481,96.866,95.0,0.2,95.25,0.016666666666666666,95.26666666666667,0.03333333333333333,95.3,0.2,95.5,1.3,right,6,0.017856247399322456
p05,1,4,8,nogo,left,right,0,strong,0.498,98.59,96.8,0.2,97.05,0.016666666666666666,97.06666666666666,0.03333333333333333,97.1,0.2,97.3,1.3,right,6,0.017797890774090774
p05,1,4,9,catch,NA,right,1,catch,0.499,100.244,98.6,0.2,98.85,0.0,98.85,0.0,98.85,0.25,99.1,1.3,right,6,1.759496171871433e-05
p05,1,4,10,nogo,left,NA,1,weak,NA,NA,100.4,0.2,100.65,0.1,100.75,0.03333333333333333,100.78333333333333,0.11666666666666667,100.9,1.3,right,6,0.10667796263260243
p05,1,4,11,go,right,right,1,strong,0.516,103.764,102.2,0.2,102.45,0.016666666666666666,102.46666666666667,0.03333333333333333,102.5,0.2,102.7,1.3,right,6,0.017764753595656657
p05,1,4,12,nogo,left,NA,1,weak,NA,NA,104.0,0.2,104.25,0.1,104.35,0.03333333333333333,104.38333333333334,0.11666666666666667,104.5,1.3,right,6,0.1066808951254643
p05,1,4,13,Rest,Rest,Rest,Rest,Rest,Rest,Rest,105.8,1.8,Rest,Rest,Rest,Rest,Rest,Rest,Rest,Rest,Rest,Rest,1.8
p05,1,4,14,catch,NA,right,1,catch,0.445,109.062,107.6,0.2,107.85,0.0,107.85,0.0,107.85,0.25,108.1,1.3,right,6,1.671521386015229e-05
p05,1,4,15,nogo,left,right,0,strong,0.481,110.804,109.4,0.2,109.65,0.016666666666666666,109.66666666666667,0.03333333333333333,109.7,0.2,109.9,1.3,right,6,0.017805222008973942
p05,1,4,16,Rest,Rest,Rest,Rest,Rest,Rest,Rest,111.2,5.4,Rest,Rest,Rest,Rest,Rest,Rest,Rest,Rest,Rest,Rest,5.4
p05,1,4,17,go,right,right,1,weak,0.391,118.271,116.6,0.2,116.85,0.1,116.95,0.03333333333333333,116.98333333333333,0.11666666666666667,117.1,1.3,right,6,0.10678558515064651
p05,1,4,18,nogo,left,right,0,strong,0.463,120.048,118.4,0.2,118.65,0.016666666666666666,118.66666666666667,0.03333333333333333,118.7,0.2,118.9,1.3,right,6,0.01775243712199881
p05,1,4,19,go,right,right,1,weak,0.356,121.738,120.2,0.2,120.45,0.1,120.55,0.03333333333333333,120.58333333333333,0.11666666666666667,120.7,1.3,right,6,0.10674482348895253
p05,1,4,20,nogo,left,right,0,strong,0.498,123.586,122.0,0.2,122.25,0.016666666666666666,122.26666666666667,0.03333333333333333,122.3,0.2,122.5,1.3,right,6,0.017809620749176247
p05,1,4,21,nogo,left,NA,1,weak,NA,NA,123.8,0.2,124.05,0.1,124.15,0.03333333333333333,124.18333333333334,0.11666666666666667,124.3,1.3,right,6,0.10675244797312189
p05,1,4,22,Rest,Rest,Rest,Rest,Rest,Rest,Rest,125.6,1.8,Rest,Rest,Rest,Rest,Rest,Rest,Rest,Rest,Rest,Rest,1.8
p05,1,4,23,go,right,right,1,weak,0.338,128.937,127.4,0.2,127.65,0.1,127.75,0.03333333333333333,127.78333333333333,0.11666666666666667,127.9,1.3,right,6,0.10659995829973923
p05,1,4,24,Rest,Rest,Rest,Rest,Rest,Rest,Rest,129.2,1.8,Rest,Rest,Rest,Rest,Rest,Rest,Rest,Rest,Rest,Rest,1.8
p05,1,4,25,go,right,right,1,strong,0.498,132.724,131.0,0.2,131.25,0.016666666666666666,131.26666666666668,0.03333333333333333,131.3,0.2,131.5,1.3,right,6,0.017766806341569463
p05,1,4,26,nogo,left,right,0,strong,0.48,134.413,132.8,0.2,133.05,0.016666666666666666,133.06666666666666,0.03333333333333333,133.1,0.2,133.3,1.3,right,6,0.01762018165572954
p05,1,4,27,catch,NA,right,1,catch,0.463,136.049,134.6,0.2,134.85,0.0,134.85,0.0,134.85,0.25,135.1,1.3,right,6,1.7008464055834338e-05
p05,1,4,28,go,right,right,1,strong,0.479,137.772,136.4,0.2,136.65,0.016666666666666666,136.66666666666666,0.03333333333333333,136.7,0.2,136.9,1.3,right,6,0.01769818598859274
p05,1,4,29,Rest,Rest,Rest,Rest,Rest,Rest,Rest,138.2,1.8,Rest,Rest,Rest,Rest,Rest,Rest,Rest,Rest,Rest,Rest,1.8
p05,1,4,30,go,right,right,1,strong,0.426,141.345,140.0,0.2,140.25,0.016666666666666666,140.26666666666668,0.03333333333333333,140.3,0.2,140.5,1.3,right,6,0.01831518266317289
p05,1,4,31,nogo,left,right,0,strong,0.409,143.035,141.8,0.2,142.05,0.016666666666666666,142.06666666666666,0.03333333333333333,142.1,0.2,142.3,1.3,right,6,0.017500829162599985
p05,1,4,32,go,right,right,1,weak,0.498,144.919,143.6,0.2,143.85,0.1,143.95,0.03333333333333333,143.98333333333332,0.11666666666666667,144.1,1.3,right,6,0.10686476248156396
p05,1,4,33,go,right,right,1,strong,0.427,146.555,145.4,0.2,145.65,0.016666666666666666,145.66666666666666,0.03333333333333333,145.7,0.2,145.9,1.3,right,6,0.018081462915688462
p05,1,4,34,catch,NA,right,1,catch,0.445,148.227,147.2,0.2,147.45,0.0,147.45,0.0,147.45,0.25,147.7,1.3,right,6,1.671521476964699e-05
p05,1,4,35,go,right,right,1,weak,0.818,150.395,149.0,0.2,149.25,0.1,149.35,0.03333333333333333,149.38333333333333,0.11666666666666667,149.5,1.3,right,6,0.10669526434503496
p05,1,4,36,go,right,right,1,strong,0.445,151.729,150.8,0.2,151.05,0.016666666666666666,151.06666666666666,0.03333333333333333,151.1,0.2,151.3,1.3,right,6,0.0177750173234017
p05,1,4,37,nogo,left,right,0,strong,0.48,153.471,152.6,0.2,152.85,0.016666666666666666,152.86666666666667,0.03333333333333333,152.9,0.2,153.1,1.3,right,6,0.017859179893093824
p05,1,4,38,go,right,right,1,weak,0.338,155.125,154.4,0.2,154.65,0.1,154.75,0.03333333333333333,154.78333333333333,0.11666666666666667,154.9,1.3,right,6,0.10653309744338912
p05,1,4,39,nogo,left,right,0,weak,0.392,156.973,156.2,0.2,156.45,0.1,156.55,0.03333333333333333,156.58333333333334,0.11666666666666667,156.7,1.3,right,6,0.10660025154902542
p05,1,4,40,nogo,left,NA,1,weak,NA,NA,158.0,0.2,158.25,0.1,158.35,0.03333333333333333,158.38333333333333,0.11666666666666667,158.5,1.3,right,6,0.10664394570540026
p05,1,4,41,go,right,right,1,strong,0.427,160.511,159.8,0.2,160.05,0.016666666666666666,160.06666666666666,0.03333333333333333,160.1,0.2,160.3,1.3,right,6,0.01773278941436729
p05,1,4,42,Rest,Rest,Rest,Rest,Rest,Rest,Rest,161.6,1.8,Rest,Rest,Rest,Rest,Rest,Rest,Rest,Rest,Rest,Rest,1.8
p05,1,4,43,nogo,left,NA,1,weak,NA,NA,163.4,0.2,163.65,0.1,163.75,0.03333333333333333,163.78333333333333,0.11666666666666667,163.9,1.3,right,6,0.10666036766997422
p05,1,4,1,nogo,left,NA,1,strong,NA,NA,167.4,0.2,167.65,0.016666666666666666,167.66666666666666,0.03333333333333333,167.7,0.2,167.9,1.3,right,6,0.017520183620945318
p05,1,4,2,go,right,right,1,strong,0.409,171.889,169.2,0.2,169.45,0.016666666666666666,169.46666666666667,0.03333333333333333,169.5,0.2,169.7,1.3,right,6,0.017902874049468664
p05,1,4,3,Rest,Rest,Rest,Rest,Rest,Rest,Rest,171.0,3.6,Rest,Rest,Rest,Rest,Rest,Rest,Rest,Rest,Rest,Rest,3.6
p05,1,4,4,nogo,left,NA,1,weak,NA,NA,174.6,0.2,174.85,0.1,174.95,0.03333333333333333,174.98333333333332,0.11666666666666667,175.1,1.3,right,6,0.10679555563001486
p05,1,4,5,go,right,right,1,strong,0.463,179.285,176.4,0.2,176.65,0.016666666666666666,176.66666666666666,0.03333333333333333,176.7,0.2,176.9,1.3,right,6,0.017679124779533595
p05,1,4,6,nogo,left,NA,1,weak,NA,NA,178.2,0.2,178.45,0.1,178.55,0.03333333333333333,178.58333333333334,0.11666666666666667,178.7,1.3,right,6,0.10653778943378711
p05,1,4,7,Rest,Rest,Rest,Rest,Rest,Rest,Rest,180.0,1.8,Rest,Rest,Rest,Rest,Rest,Rest,Rest,Rest,Rest,Rest,1.8
p05,1,4,8,nogo,left,right,0,strong,0.409,184.654,181.8,0.2,182.05,0.016666666666666666,182.06666666666666,0.03333333333333333,182.1,0.2,182.3,1.3,right,6,0.017820470976403158
p05,1,4,9,catch,NA,right,1,catch,0.445,186.343,183.6,0.2,183.85,0.0,183.85,0.0,183.85,0.25,184.1,1.3,right,6,1.671521476964699e-05
p05,1,4,10,go,right,right,1,weak,0.445,188.138,185.4,0.2,185.65,0.1,185.75,0.03333333333333333,185.78333333333333,0.11666666666666667,185.9,1.3,right,6,0.1066829478722866
p05,1,4,11,nogo,left,NA,1,weak,NA,NA,187.2,0.2,187.45,0.1,187.55,0.03333333333333333,187.58333333333334,0.11666666666666667,187.7,1.3,right,6,0.10665450268243148
p05,1,4,12,nogo,left,right,0,strong,1.014,192.21,189.0,0.2,189.25,0.016666666666666666,189.26666666666668,0.03333333333333333,189.3,0.2,189.5,1.3,right,6,0.017781175560230622
p05,1,4,13,go,right,right,1,strong,0.569,193.472,190.8,0.2,191.05,0.016666666666666666,191.06666666666666,0.03333333333333333,191.1,0.2,191.3,1.3,right,6,0.017685576265648706
p05,1,4,14,go,right,right,1,weak,0.658,195.356,192.6,0.2,192.85,0.1,192.95,0.03333333333333333,192.98333333333332,0.11666666666666667,193.1,1.3,right,6,0.1068281063098766
p05,1,4,15,catch,NA,right,1,catch,0.552,196.903,194.4,0.2,194.65,0.0,194.65,0.0,194.65,0.25,194.9,1.3,right,6,1.6421964573964942e-05
p05,1,4,16,nogo,left,right,0,strong,0.498,198.556,196.2,0.2,196.45,0.016666666666666666,196.46666666666667,0.03333333333333333,196.5,0.2,196.7,1.3,right,6,0.017885279086840455
p05,1,4,17,catch,NA,right,1,catch,0.48,200.192,198.0,0.2,198.25,0.0,198.25,0.0,198.25,0.25,198.5,1.3,right,6,1.671521386015229e-05
p05,1,4,18,go,right,right,1,strong,0.427,201.845,199.8,0.2,200.05,0.016666666666666666,200.06666666666666,0.03333333333333333,200.1,0.2,200.3,1.3,right,6,0.017817831731917977
p05,1,4,19,go,right,right,1,weak,0.356,203.57,201.6,0.2,201.85,0.1,201.95,0.03333333333333333,201.98333333333332,0.11666666666666667,202.1,1.3,right,6,0.10693162333700457
p05,1,4,20,Rest,Rest,Rest,Rest,Rest,Rest,Rest,203.4,5.4,Rest,Rest,Rest,Rest,Rest,Rest,Rest,Rest,Rest,Rest,5.4
p05,1,4,21,nogo,left,NA,1,weak,NA,NA,208.8,0.2,209.05,0.1,209.15,0.03333333333333333,209.18333333333334,0.11666666666666667,209.3,1.3,right,6,0.10662253850114212
p05,1,4,22,nogo,left,NA,1,weak,NA,NA,210.6,0.2,210.85,0.1,210.95,0.03333333333333333,210.98333333333332,0.11666666666666667,211.1,1.3,right,6,0.10666593940823077
p05,1,4,23,go,right,right,1,weak,0.285,214.646,212.4,0.2,212.65,0.1,212.75,0.03333333333333333,212.78333333333333,0.11666666666666667,212.9,1.3,right,6,0.10669936983595107
p05,1,4,24,go,right,right,1,strong,0.463,216.53,214.2,0.2,214.45,0.016666666666666666,214.46666666666667,0.03333333333333333,214.5,0.2,214.7,1.3,right,6,0.017890850825097004
p05,1,4,25,go,right,right,1,strong,0.534,218.308,216.0,0.2,216.25,0.016666666666666666,216.26666666666668,0.03333333333333333,216.3,0.2,216.5,1.3,right,6,0.017730150170791603
p05,1,4,26,nogo,left,NA,1,weak,NA,NA,217.8,0.2,218.05,0.1,218.15,0.03333333333333333,218.18333333333334,0.11666666666666667,218.3,1.3,right,6,0.10640612046609021
p05,1,4,27,Rest,Rest,Rest,Rest,Rest,Rest,Rest,219.6,1.8,Rest,Rest,Rest,Rest,Rest,Rest,Rest,Rest,Rest,Rest,1.8
p05,1,4,28,nogo,left,right,0,strong,1.245,224.441,221.4,0.2,221.65,0.016666666666666666,221.66666666666666,0.03333333333333333,221.7,0.2,221.9,1.3,right,6,0.01780258276448876
p05,1,4,29,go,right,right,1,strong,0.48,225.383,223.2,0.2,223.45,0.016666666666666666,223.46666666666667,0.03333333333333333,223.5,0.2,223.7,1.3,right,6,0.017769445586054644
p05,1,4,30,nogo,left,right,0,strong,0.409,227.019,225.0,0.2,225.25,0.016666666666666666,225.26666666666668,0.03333333333333333,225.3,0.2,225.5,1.3,right,6,0.017672380044132296
p05,1,4,31,go,right,right,1,weak,0.338,228.743,226.8,0.2,227.05,0.1,227.15,0.03333333333333333,227.18333333333334,0.11666666666666667,227.3,1.3,right,6,0.10672634877846576
p05,1,4,32,nogo,left,NA,1,weak,NA,NA,228.6,0.2,228.85,0.1,228.95,0.03333333333333333,228.98333333333332,0.11666666666666667,229.1,1.3,right,6,0.10671491205357597
p05,1,4,33,go,right,right,1,weak,0.356,232.352,230.4,0.2,230.65,0.1,230.75,0.03333333333333333,230.78333333333333,0.11666666666666667,230.9,1.3,right,6,0.10680757885438652
p05,1,4,34,go,right,right,1,weak,0.587,234.379,232.2,0.2,232.45,0.1,232.55,0.03333333333333333,232.58333333333334,0.11666666666666667,232.7,1.3,right,6,0.1066785491311748
p05,1,4,35,go,right,right,1,weak,0.463,236.05,234.0,0.2,234.25,0.1,234.35,0.03333333333333333,234.38333333333333,0.11666666666666667,234.5,1.3,right,6,0.1063506963355394
p05,1,4,36,nogo,left,right,0,strong,0.498,237.792,235.8,0.2,236.05,0.016666666666666666,236.06666666666666,0.03333333333333333,236.1,0.2,236.3,1.3,right,6,0.017797011026232212
p05,1,4,37,nogo,left,NA,1,weak,NA,NA,237.6,0.2,237.85,0.1,237.95,0.03333333333333333,237.98333333333332,0.11666666666666667,238.1,1.3,right,6,0.10665684867763048
p05,1,4,38,catch,NA,right,1,catch,0.48,241.223,239.4,0.2,239.65,0.0,239.65,0.0,239.65,0.25,239.9,1.3,right,6,1.7301713342021685e-05
p05,1,4,39,Rest,Rest,Rest,Rest,Rest,Rest,Rest,241.2,1.8,Rest,Rest,Rest,Rest,Rest,Rest,Rest,Rest,Rest,Rest,1.8
p05,1,4,40,go,right,right,1,strong,0.427,244.797,243.0,0.2,243.25,0.016666666666666666,243.26666666666668,0.03333333333333333,243.3,0.2,243.5,1.3,right,6,0.01779378528408415
p05,1,4,41,nogo,left,right,0,strong,0.445,246.521,244.8,0.2,245.05,0.016666666666666666,245.06666666666666,0.03333333333333333,245.1,0.2,245.3,1.3,right,6,0.017749211378941254
p05,1,4,42,Rest,Rest,Rest,Rest,Rest,Rest,Rest,246.6,1.8,Rest,Rest,Rest,Rest,Rest,Rest,Rest,Rest,Rest,Rest,1.8
p05,1,4,1,nogo,left,NA,1,weak,NA,NA,252.6,0.2,252.85,0.1,252.95,0.03333333333333333,252.98333333333332,0.11666666666666667,253.1,1.3,right,6,0.10656418187681993
p05,1,4,2,Rest,Rest,Rest,Rest,Rest,Rest,Rest,254.4,1.8,Rest,Rest,Rest,Rest,Rest,Rest,Rest,Rest,Rest,Rest,1.8
p05,1,4,3,go,right,right,1,weak,0.232,260.139,256.2,0.2,256.45,0.1,256.55,0.03333333333333333,256.5833333333333,0.11666666666666667,256.7,1.3,right,6,0.1066495174436568
p05,1,4,4,nogo,left,right,0,strong,0.445,262.059,258.0,0.2,258.25,0.016666666666666666,258.26666666666665,0.03333333333333333,258.3,0.2,258.5,1.3,right,6,0.017864165131868504
p05,1,4,5,nogo,left,right,0,strong,0.374,263.695,259.8,0.2,260.05,0.016666666666666666,260.06666666666666,0.03333333333333333,260.1,0.2,260.3,1.3,right,6,0.017788506794204295
p05,1,4,6,go,right,right,1,strong,0.427,265.455,261.6,0.2,261.85,0.016666666666666666,261.8666666666667,0.03333333333333333,261.9,0.2,262.1,1.3,right,6,0.017821057474975532
p05,1,4,7,go,right,right,1,strong,0.481,267.215,263.4,0.2,263.65,0.016666666666666666,263.6666666666667,0.03333333333333333,263.7,0.2,263.9,1.3,right,6,0.017667101555161935
p05,1,4,8,go,right,right,1,strong,0.427,268.868,265.2,0.2,265.45,0.016666666666666666,265.46666666666664,0.03333333333333333,265.5,0.2,265.7,1.3,right,6,0.017759181857400108
p05,1,4,9,nogo,left,right,0,strong,0.374,270.522,267.0,0.2,267.25,0.016666666666666666,267.26666666666665,0.03333333333333333,267.3,0.2,267.5,1.3,right,6,0.017777363318600692
p05,1,4,10,go,right,right,1,strong,0.374,272.228,268.8,0.2,269.05,0.016666666666666666,269.06666666666666,0.03333333333333333,269.1,0.2,269.3,1.3,right,6,0.01773748140385578
p05,1,4,11,go,right,right,1,weak,0.356,274.006,270.6,0.2,270.85,0.1,270.95,0.03333333333333333,270.98333333333335,0.11666666666666667,271.1,1.3,right,6,0.1066586081733476
p05,1,4,12,Rest,Rest,Rest,Rest,Rest,Rest,Rest,272.4,3.6,Rest,Rest,Rest,Rest,Rest,Rest,Rest,Rest,Rest,Rest,3.6
p05,1,4,13,go,right,right,1,weak,0.392,279.677,276.0,0.2,276.25,0.1,276.35,0.03333333333333333,276.3833333333333,0.11666666666666667,276.5,1.3,right,6,0.10665039719151537
p05,1,4,14,go,right,right,1,weak,0.374,281.455,277.8,0.2,278.05,0.1,278.15,0.03333333333333333,278.18333333333334,0.11666666666666667,278.3,1.3,right,6,0.10684218228016107
p05,1,4,15,catch,NA,right,1,catch,0.498,283.233,279.6,0.2,279.85,0.0,279.85,0.0,279.85,0.25,280.1,1.3,right,6,1.671521386015229e-05
p05,1,4,16,go,right,right,1,weak,0.303,284.833,281.4,0.2,281.65,0.1,281.75,0.03333333333333333,281.78333333333336,0.11666666666666667,281.9,1.3,right,6,0.10671813779572403
p05,1,4,17,Rest,Rest,Rest,Rest,Rest,Rest,Rest,283.2,1.8,Rest,Rest,Rest,Rest,Rest,Rest,Rest,Rest,Rest,Rest,1.8
p05,1,4,18,nogo,left,right,0,strong,0.427,288.584,285.0,0.2,285.25,0.016666666666666666,285.26666666666665,0.03333333333333333,285.3,0.2,285.5,1.3,right,6,0.01772985692059592
p05,1,4,19,Rest,Rest,Rest,Rest,Rest,Rest,Rest,286.8,1.8,Rest,Rest,Rest,Rest,Rest,Rest,Rest,Rest,Rest,Rest,1.8
p05,1,4,20,go,right,right,1,strong,0.392,292.175,288.6,0.2,288.85,0.016666666666666666,288.8666666666667,0.03333333333333333,288.9,0.2,289.1,1.3,right,6,0.01783542669363669
p05,1,4,21,nogo,left,NA,1,weak,NA,NA,290.4,0.2,290.65,0.1,290.75,0.03333333333333333,290.78333333333336,0.11666666666666667,290.9,1.3,right,6,0.10663573472265853
p05,1,4,22,nogo,left,NA,1,weak,NA,NA,292.2,0.2,292.45,0.1,292.55,0.03333333333333333,292.5833333333333,0.11666666666666667,292.7,1.3,right,6,0.10668705336320272
p05,1,4,23,nogo,left,right,0,strong,0.48,297.562,294.0,0.2,294.25,0.016666666666666666,294.26666666666665,0.03333333333333333,294.3,0.2,294.5,1.3,right,6,0.017725458180393616
p05,1,4,24,catch,NA,right,1,catch,0.534,299.269,295.8,0.2,296.05,0.0,296.05,0.0,296.05,0.25,296.3,1.3,right,6,1.671521386015229e-05
p05,1,4,25,catch,NA,right,1,catch,0.48,300.868,297.6,0.2,297.85,0.0,297.85,0.0,297.85,0.25,298.1,1.3,right,6,1.671521386015229e-05
p05,1,4,26,nogo,left,NA,1,weak,NA,NA,299.4,0.2,299.65,0.1,299.75,0.03333333333333333,299.78333333333336,0.11666666666666667,299.9,1.3,right,6,0.10683543754385028
p05,1,4,27,Rest,Rest,Rest,Rest,Rest,Rest,Rest,301.2,3.6,Rest,Rest,Rest,Rest,Rest,Rest,Rest,Rest,Rest,Rest,3.6
p05,1,4,28,go,right,right,1,weak,0.338,308.158,304.8,0.2,305.05,0.1,305.15,0.03333333333333333,305.18333333333334,0.11666666666666667,305.3,1.3,right,6,0.10667942887903337
p05,1,4,29,nogo,left,right,0,strong,0.409,309.935,306.6,0.2,306.85,0.016666666666666666,306.8666666666667,0.03333333333333333,306.9,0.2,307.1,1.3,right,6,0.0178753086083816
p05,1,4,30,Rest,Rest,Rest,Rest,Rest,Rest,Rest,308.4,1.8,Rest,Rest,Rest,Rest,Rest,Rest,Rest,Rest,Rest,Rest,1.8
p05,1,4,31,nogo,left,NA,1,weak,NA,NA,310.2,0.2,310.45,0.1,310.55,0.03333333333333333,310.5833333333333,0.11666666666666667,310.7,1.3,right,6,0.10669497109574877
p05,1,4,32,nogo,left,right,0,strong,0.338,315.287,312.0,0.2,312.25,0.016666666666666666,312.26666666666665,0.03333333333333333,312.3,0.2,312.5,1.3,right,6,0.01767413953984942
p05,1,4,33,nogo,left,NA,1,weak,NA,NA,313.8,0.2,314.05,0.1,314.15,0.03333333333333333,314.18333333333334,0.11666666666666667,314.3,1.3,right,6,0.10664570520202687
p05,1,4,34,go,right,right,1,strong,0.445,318.896,315.6,0.2,315.85,0.016666666666666666,315.8666666666667,0.03333333333333333,315.9,0.2,316.1,1.3,right,6,0.017766806341569463
p05,1,4,35,nogo,left,right,0,strong,0.445,320.602,317.4,0.2,317.65,0.016666666666666666,317.6666666666667,0.03333333333333333,317.7,0.2,317.9,1.3,right,6,0.017815485736718983
p05,1,4,36,go,right,right,1,weak,0.48,322.433,319.2,0.2,319.45,0.1,319.55,0.03333333333333333,319.5833333333333,0.11666666666666667,319.7,1.3,right,6,0.10655890338875906
p05,1,4,37,go,right,right,1,strong,0.463,324.122,321.0,0.2,321.25,0.016666666666666666,321.26666666666665,0.03333333333333333,321.3,0.2,321.5,1.3,right,6,0.01781196674437524
p05,1,4,38,nogo,left,NA,1,weak,NA,NA,322.8,0.2,323.05,0.1,323.15,0.03333333333333333,323.18333333333334,0.11666666666666667,323.3,1.3,right,6,0.10662341824991017
p05,1,4,39,go,right,right,1,strong,0.427,327.589,324.6,0.2,324.85,0.016666666666666666,324.8666666666667,0.03333333333333333,324.9,0.2,325.1,1.3,right,6,0.01790170105141442
p05,1,4,40,catch,NA,right,1,catch,0.462,329.278,326.4,0.2,326.65,0.0,326.65,0.0,326.65,0.25,326.9,1.3,right,6,1.7888211004901677e-05
p05,1,4,41,Rest,Rest,Rest,Rest,Rest,Rest,Rest,328.2,1.8,Rest,Rest,Rest,Rest,Rest,Rest,Rest,Rest,Rest,Rest,1.8
p05,1,4,42,nogo,left,NA,1,weak,NA,NA,330.0,0.2,330.25,0.1,330.35,0.03333333333333333,330.3833333333333,0.11666666666666667,330.5,1.3,right,6,0.10658881482322613
p05,1,4,43,go,right,right,1,weak,0.214,334.54,331.8,0.2,332.05,0.1,332.15,0.03333333333333333,332.18333333333334,0.11666666666666667,332.3,1.3,right,6,0.10665567568048573
