subid,session,run,trial,trial_type,side,response,correct,strength,response_time,cumulative_response_time,fixation_onset,fixation_dur,stim_onset,stim_dur,blank_onset,blank_dur,mask_onset,mask_dur,response_onset,response_dur,go_side,Staircase_stimulus,Presentation Duration
p09,1,2,1,catch,NA,right,1,catch,0.854,1.131,0.0,0.2,0.25,0.0,0.25,0.0,0.25,0.25,0.5,1.3,right,12,1.818145756260492e-05
p09,1,2,2,go,right,right,1,weak,0.196,2.375,1.8,0.2,2.05,0.2,2.25,0.03333333333333333,2.283333333333333,0.016666666666666666,2.3,1.3,right,12,0.213406364156981
p09,1,2,3,nogo,left,NA,1,weak,NA,NA,3.6,0.2,3.85,0.2,4.05,0.03333333333333333,4.083333333333333,0.016666666666666666,4.1,1.3,right,12,0.213261205717572
p09,1,2,4,go,right,right,1,strong,0.427,6.215,5.4,0.2,5.65,0.016666666666666666,5.666666666666667,0.03333333333333333,5.7,0.2,5.9,1.3,right,12,0.01781753848263179
p09,1,2,5,nogo,left,right,0,strong,0.552,8.047,7.2,0.2,7.45,0.016666666666666666,7.466666666666667,0.03333333333333333,7.5,0.2,7.7,1.3,right,12,0.0179782391351182
p09,1,2,6,nogo,left,right,0,strong,0.605,9.807,9.0,0.2,9.25,0.016666666666666666,9.266666666666667,0.03333333333333333,9.3,0.2,9.5,1.3,right,12,0.017667688051005825
p09,1,2,7,nogo,left,NA,1,weak,NA,NA,10.8,0.2,11.05,0.2,11.25,0.03333333333333333,11.283333333333333,0.016666666666666666,11.3,1.3,right,12,0.21336267000151565
p09,1,2,8,catch,NA,right,1,catch,0.498,13.256,12.6,0.2,12.85,0.0,12.85,0.0,12.85,0.25,13.1,1.3,right,12,1.7888211004901677e-05
p09,1,2,9,nogo,left,right,0,strong,0.445,14.909,14.4,0.2,14.65,0.016666666666666666,14.666666666666666,0.03333333333333333,14.7,0.2,14.9,1.3,right,12,0.01773777465496096
p09,1,2,10,go,right,right,1,weak,0.694,17.06,16.2,0.2,16.45,0.2,16.65,0.03333333333333333,16.683333333333334,0.016666666666666666,16.7,1.3,right,12,0.21341692113492172
p09,1,2,11,go,right,right,1,weak,0.267,18.536,18.0,0.2,18.25,0.2,18.45,0.03333333333333333,18.483333333333334,0.016666666666666666,18.5,1.3,right,12,0.2133257205823611
p09,1,2,12,catch,NA,right,1,catch,0.498,20.42,19.8,0.2,20.05,0.0,20.05,0.0,20.05,0.25,20.3,1.3,right,12,1.6715217498131096e-05
p09,1,2,13,nogo,left,right,0,strong,0.374,22.002,21.6,0.2,21.85,0.016666666666666666,21.866666666666667,0.03333333333333333,21.9,0.2,22.1,1.3,right,12,0.017768859088391764
p09,1,2,14,nogo,left,right,0,strong,0.729,24.065,23.4,0.2,23.65,0.016666666666666666,23.666666666666668,0.03333333333333333,23.7,0.2,23.9,1.3,right,12,0.018091433394147316
p09,1,2,15,Rest,Rest,Rest,Rest,Rest,Rest,Rest,25.2,1.8,Rest,Rest,Rest,Rest,Rest,Rest,Rest,Rest,Rest,Rest,1.8
p09,1,2,16,go,right,right,1,strong,0.338,27.3,27.0,0.2,27.25,0.016666666666666666,27.266666666666666,0.03333333333333333,27.3,0.2,27.5,1.3,right,12,0.01786211238868418
p09,1,2,17,go,right,right,1,strong,0.499,29.167,28.8,0.2,29.05,0.016666666666666666,29.066666666666666,0.03333333333333333,29.1,0.2,29.3,1.3,right,12,0.01797178764900309
p09,1,2,18,Rest,Rest,Rest,Rest,Rest,Rest,Rest,30.6,1.8,Rest,Rest,Rest,Rest,Rest,Rest,Rest,Rest,Rest,Rest,1.8
p09,1,2,19,go,right,right,1,strong,0.356,32.652,32.4,0.2,32.65,0.016666666666666666,32.666666666666664,0.03333333333333333,32.7,0.2,32.9,1.3,right,12,0.01789730231030262
p09,1,2,20,go,right,right,1,strong,0.409,34.411,34.2,0.2,34.45,0.016666666666666666,34.46666666666667,0.03333333333333333,34.5,0.2,34.7,1.3,right,12,0.01785566089893109
p09,1,2,21,nogo,left,right,0,strong,0.463,36.171,36.0,0.2,36.25,0.016666666666666666,36.266666666666666,0.03333333333333333,36.3,0.2,36.5,1.3,right,12,0.01789085082418751
p09,1,2,22,go,right,right,1,strong,0.445,37.86,37.8,0.2,38.05,0.016666666666666666,38.06666666666667,0.03333333333333333,38.1,0.2,38.3,1.3,right,12,0.01774539913822082
p09,1,2,23,nogo,left,right,0,strong,0.303,39.425,39.6,0.2,39.85,0.016666666666666666,39.86666666666667,0.03333333333333333,39.9,0.2,40.1,1.3,right,12,0.01771666069907951
p09,1,2,24,go,right,right,1,strong,0.427,41.256,41.4,0.2,41.65,0.016666666666666666,41.666666666666664,0.03333333333333333,41.7,0.2,41.9,1.3,right,12,0.01787941409929772
p09,1,2,25,Rest,Rest,Rest,Rest,Rest,Rest,Rest,43.2,1.8,Rest,Rest,Rest,Rest,Rest,Rest,Rest,Rest,Rest,Rest,1.8
p09,1,2,26,nogo,left,NA,1,weak,NA,NA,45.0,0.2,45.25,0.2,45.45,0.03333333333333333,45.483333333333334,0.016666666666666666,45.5,1.3,right,12,0.21344390007288894
p09,1,2,27,go,right,right,1,weak,0.214,46.767,46.8,0.2,47.05,0.2,47.25,0.03333333333333333,47.28333333333333,0.016666666666666666,47.3,1.3,right,12,0.21358202052942943
p09,1,2,28,nogo,left,right,0,weak,0.48,48.936,48.6,0.2,48.85,0.2,49.05,0.03333333333333333,49.083333333333336,0.016666666666666666,49.1,1.3,right,12,0.21331985559299937
p09,1,2,29,nogo,left,NA,1,weak,NA,NA,50.4,0.2,50.65,0.2,50.85,0.03333333333333333,50.88333333333333,0.016666666666666666,50.9,1.3,right,12,0.21334302228933666
p09,1,2,30,go,right,right,1,weak,0.338,52.598,52.2,0.2,52.45,0.2,52.65,0.03333333333333333,52.68333333333333,0.016666666666666666,52.7,1.3,right,12,0.2133374505538086
p09,1,2,31,go,right,right,1,weak,0.214,54.376,54.0,0.2,54.25,0.2,54.45,0.03333333333333333,54.483333333333334,0.016666666666666666,54.5,1.3,right,12,0.21338554345129523
p09,1,2,32,go,right,right,1,strong,0.481,56.35,55.8,0.2,56.05,0.016666666666666666,56.06666666666667,0.03333333333333333,56.1,0.2,56.3,1.3,right,12,0.017914310774358455
p09,1,2,33,nogo,left,NA,1,weak,NA,NA,57.6,0.2,57.85,0.2,58.05,0.03333333333333333,58.083333333333336,0.016666666666666666,58.1,1.3,right,12,0.21332425433502067
p09,1,2,34,Rest,Rest,Rest,Rest,Rest,Rest,Rest,59.4,1.8,Rest,Rest,Rest,Rest,Rest,Rest,Rest,Rest,Rest,Rest,1.8
p09,1,2,35,go,right,right,1,weak,0.32,61.914,61.2,0.2,61.45,0.2,61.65,0.03333333333333333,61.68333333333333,0.016666666666666666,61.7,1.3,right,12,0.21341252239290043
p09,1,2,36,go,right,right,1,weak,0.374,63.869,63.0,0.2,63.25,0.2,63.45,0.03333333333333333,63.483333333333334,0.016666666666666666,63.5,1.3,right,12,0.21334947377908975
p09,1,2,37,nogo,left,NA,1,weak,NA,NA,64.8,0.2,65.05,0.2,65.25,0.03333333333333333,65.28333333333333,0.016666666666666666,65.3,1.3,right,12,0.2133553387648135
p09,1,2,38,Rest,Rest,Rest,Rest,Rest,Rest,Rest,66.6,1.8,Rest,Rest,Rest,Rest,Rest,Rest,Rest,Rest,Rest,Rest,1.8
p09,1,2,39,nogo,left,NA,1,weak,NA,NA,68.4,0.2,68.65,0.2,68.85,0.03333333333333333,68.88333333333334,0.016666666666666666,68.9,1.3,right,12,0.21349287272096262
p09,1,2,40,catch,NA,right,1,catch,0.64,71.514,70.2,0.2,70.45,0.0,70.45,0.0,70.45,0.25,70.7,1.3,right,12,1.759496080921963e-05
p09,1,2,41,Rest,Rest,Rest,Rest,Rest,Rest,Rest,72.0,5.4,Rest,Rest,Rest,Rest,Rest,Rest,Rest,Rest,Rest,Rest,5.4
p09,1,2,42,nogo,left,NA,1,strong,NA,NA,77.4,0.2,77.65,0.016666666666666666,77.66666666666667,0.03333333333333333,77.7,0.2,77.9,1.3,right,12,0.017723405435390305
p09,1,2,43,Rest,Rest,Rest,Rest,Rest,Rest,Rest,79.2,1.8,Rest,Rest,Rest,Rest,Rest,Rest,Rest,Rest,Rest,Rest,1.8
p09,1,2,1,go,right,right,1,weak,0.374,87.87,84.2,0.2,84.45,0.2,84.65,0.03333333333333333,84.68333333333334,0.016666666666666666,84.7,1.3,right,12,0.21336120375053724
p09,1,2,2,Rest,Rest,Rest,Rest,Rest,Rest,Rest,86.0,1.8,Rest,Rest,Rest,Rest,Rest,Rest,Rest,Rest,Rest,Rest,1.8
p09,1,2,3,nogo,left,right,0,strong,0.516,91.639,87.8,0.2,88.05,0.016666666666666666,88.06666666666666,0.03333333333333333,88.1,0.2,88.3,1.3,right,12,0.01774041389580816
p09,1,2,4,nogo,left,right,0,strong,0.339,93.168,89.6,0.2,89.85,0.016666666666666666,89.86666666666666,0.03333333333333333,89.9,0.2,90.1,1.3,right,12,0.017641295613429975
p09,1,2,5,go,right,right,1,strong,0.534,95.07,91.4,0.2,91.65,0.016666666666666666,91.66666666666667,0.03333333333333333,91.7,0.2,91.9,1.3,right,12,0.017867097623820882
p09,1,2,6,nogo,left,right,0,weak,0.534,96.972,93.2,0.2,93.45,0.2,93.65,0.03333333333333333,93.68333333333334,0.016666666666666666,93.7,1.3,right,12,0.21323891876454582
p09,1,2,7,nogo,left,NA,1,weak,NA,NA,95.0,0.2,95.25,0.2,95.45,0.03333333333333333,95.48333333333333,0.016666666666666666,95.5,1.3,right,12,0.21330724587096483
p09,1,2,8,nogo,left,NA,1,strong,NA,NA,96.8,0.2,97.05,0.016666666666666666,97.06666666666666,0.03333333333333333,97.1,0.2,97.3,1.3,right,12,0.0178392389389046
p09,1,2,9,Rest,Rest,Rest,Rest,Rest,Rest,Rest,98.6,3.6,Rest,Rest,Rest,Rest,Rest,Rest,Rest,Rest,Rest,Rest,3.6
p09,1,2,10,go,right,right,1,weak,0.249,106.039,102.2,0.2,102.45,0.2,102.65,0.03333333333333333,102.68333333333334,0.016666666666666666,102.7,1.3,right,12,0.21337410672276746
p09,1,2,11,Rest,Rest,Rest,Rest,Rest,Rest,Rest,104.0,1.8,Rest,Rest,Rest,Rest,Rest,Rest,Rest,Rest,Rest,Rest,1.8
p09,1,2,12,go,right,right,1,strong,0.552,109.968,105.8,0.2,106.05,0.016666666666666666,106.06666666666666,0.03333333333333333,106.1,0.2,106.3,1.3,right,12,0.017686749262793455
p09,1,2,13,go,right,right,1,weak,0.374,111.692,107.6,0.2,107.85,0.2,108.05,0.03333333333333333,108.08333333333333,0.016666666666666666,108.1,1.3,right,12,0.2133459547876555
p09,1,2,14,nogo,left,right,0,strong,0.374,113.399,109.4,0.2,109.65,0.016666666666666666,109.66666666666667,0.03333333333333333,109.7,0.2,109.9,1.3,right,12,0.017868563874799293
p09,1,2,15,go,right,right,1,strong,0.498,115.23,111.2,0.2,111.45,0.016666666666666666,111.46666666666667,0.03333333333333333,111.5,0.2,111.7,1.3,right,12,0.017753610121872043
p09,1,2,16,go,right,right,1,strong,0.516,116.955,113.0,0.2,113.25,0.016666666666666666,113.26666666666667,0.03333333333333333,113.3,0.2,113.5,1.3,right,12,0.017556546543346485
p09,1,2,17,nogo,left,NA,1,weak,NA,NA,114.8,0.2,115.05,0.2,115.25,0.03333333333333333,115.28333333333333,0.016666666666666666,115.3,1.3,right,12,0.21332806657301262
p09,1,2,18,go,right,right,1,weak,0.427,120.67,116.6,0.2,116.85,0.2,117.05,0.03333333333333333,117.08333333333333,0.016666666666666666,117.1,1.3,right,12,0.21339903292391682
p09,1,2,19,nogo,left,NA,1,weak,NA,NA,118.4,0.2,118.65,0.2,118.85,0.03333333333333333,118.88333333333334,0.016666666666666666,118.9,1.3,right,12,0.2132987416407559
p09,1,2,20,Rest,Rest,Rest,Rest,Rest,Rest,Rest,120.2,3.6,Rest,Rest,Rest,Rest,Rest,Rest,Rest,Rest,Rest,Rest,3.6
p09,1,2,21,go,right,right,1,strong,0.374,128.066,123.8,0.2,124.05,0.016666666666666666,124.06666666666666,0.03333333333333333,124.1,0.2,124.3,1.3,right,12,0.017863285382190952
p09,1,2,22,go,right,right,1,strong,0.48,129.879,125.6,0.2,125.85,0.016666666666666666,125.86666666666666,0.03333333333333333,125.9,0.2,126.1,1.3,right,12,0.017768565838196082
p09,1,2,23,nogo,left,NA,1,weak,NA,NA,127.4,0.2,127.65,0.2,127.85,0.03333333333333333,127.88333333333334,0.016666666666666666,127.9,1.3,right,12,0.21321604531476623
p09,1,2,24,nogo,left,NA,1,weak,NA,NA,129.2,0.2,129.45,0.2,129.65,0.03333333333333333,129.68333333333334,0.016666666666666666,129.7,1.3,right,12,0.21338525020473753
p09,1,2,25,nogo,left,NA,1,weak,NA,NA,131.0,0.2,131.25,0.2,131.45,0.03333333333333333,131.48333333333332,0.016666666666666666,131.5,1.3,right,12,0.21329639564282843
p09,1,2,26,go,right,right,1,weak,0.463,137.471,132.8,0.2,133.05,0.2,133.25,0.03333333333333333,133.28333333333333,0.016666666666666666,133.3,1.3,right,12,0.21329786188653088
p09,1,2,27,catch,NA,right,1,catch,0.729,139.391,134.6,0.2,134.85,0.0,134.85,0.0,134.85,0.25,135.1,1.3,right,12,1.7301714251516387e-05
p09,1,2,28,nogo,left,right,0,strong,0.587,140.955,136.4,0.2,136.65,0.016666666666666666,136.66666666666666,0.03333333333333333,136.7,0.2,136.9,1.3,right,12,0.017734548910084413
p09,1,2,29,go,right,right,1,strong,0.445,142.52,138.2,0.2,138.45,0.016666666666666666,138.46666666666667,0.03333333333333333,138.5,0.2,138.7,1.3,right,12,0.01769261425215518
p09,1,2,30,go,right,right,1,weak,0.374,144.351,140.0,0.2,140.25,0.2,140.45,0.03333333333333333,140.48333333333332,0.016666666666666666,140.5,1.3,right,12,0.2133087121146673
p09,1,2,31,go,right,right,1,weak,0.285,146.164,141.8,0.2,142.05,0.2,142.25,0.03333333333333333,142.28333333333333,0.016666666666666666,142.3,1.3,right,12,0.21340079241781496
p09,1,2,32,go,right,right,1,strong,0.392,147.977,143.6,0.2,143.85,0.016666666666666666,143.86666666666667,0.03333333333333333,143.9,0.2,144.1,1.3,right,12,0.01774158689659089
p09,1,2,33,nogo,left,right,0,weak,0.356,149.844,145.4,0.2,145.65,0.2,145.85,0.03333333333333333,145.88333333333333,0.016666666666666666,145.9,1.3,right,12,0.21336912148399279
p09,1,2,34,catch,NA,right,1,catch,0.747,151.888,147.2,0.2,147.45,0.0,147.45,0.0,147.45,0.25,147.7,1.3,right,12,2.052745912806131e-05
p09,1,2,35,nogo,left,right,0,strong,0.409,153.257,149.0,0.2,149.25,0.016666666666666666,149.26666666666668,0.03333333333333333,149.3,0.2,149.5,1.3,right,12,0.01787061661889311
p09,1,2,36,Rest,Rest,Rest,Rest,Rest,Rest,Rest,150.8,1.8,Rest,Rest,Rest,Rest,Rest,Rest,Rest,Rest,Rest,Rest,1.8
p09,1,2,37,nogo,left,right,0,strong,0.534,157.008,152.6,0.2,152.85,0.016666666666666666,152.86666666666667,0.03333333333333333,152.9,0.2,153.1,1.3,right,12,0.017747745132510317
p09,1,2,38,catch,NA,right,1,catch,0.516,158.644,154.4,0.2,154.65,0.0,154.65,0.0,154.65,0.25,154.9,1.3,right,12,1.759496080921963e-05
p09,1,2,39,Rest,Rest,Rest,Rest,Rest,Rest,Rest,156.2,3.6,Rest,Rest,Rest,Rest,Rest,Rest,Rest,Rest,Rest,Rest,3.6
p09,1,2,40,nogo,left,right,0,strong,0.356,164.031,159.8,0.2,160.05,0.016666666666666666,160.06666666666666,0.03333333333333333,160.1,0.2,160.3,1.3,right,12,0.01772663118026685
p09,1,2,41,go,right,right,1,weak,0.143,165.72,161.6,0.2,161.85,0.2,162.05,0.03333333333333333,162.08333333333334,0.016666666666666666,162.1,1.3,right,12,0.21330929861505865
p09,1,2,42,catch,NA,right,1,catch,0.445,167.675,163.4,0.2,163.65,0.0,163.65,0.0,163.65,0.25,163.9,1.3,right,12,1.7888214642880484e-05
p09,1,2,1,go,right,right,1,weak,0.232,175.764,169.4,0.2,169.65,0.2,169.85,0.03333333333333333,169.88333333333333,0.016666666666666666,169.9,1.3,right,12,0.21329053065710468
p09,1,2,2,catch,NA,right,1,catch,0.569,177.755,171.2,0.2,171.45,0.0,171.45,0.0,171.45,0.25,171.7,1.3,right,12,1.7008464055834338e-05
p09,1,2,3,go,right,right,1,strong,0.48,179.373,173.0,0.2,173.25,0.016666666666666666,173.26666666666668,0.03333333333333333,173.3,0.2,173.5,1.3,right,12,0.017884985834825784
p09,1,2,4,go,right,right,1,strong,0.481,181.08,174.8,0.2,175.05,0.016666666666666666,175.06666666666666,0.03333333333333333,175.1,0.2,175.3,1.3,right,12,0.017814605991588905
p09,1,2,5,nogo,left,NA,1,weak,NA,NA,176.6,0.2,176.85,0.2,177.05,0.03333333333333333,177.08333333333334,0.016666666666666666,177.1,1.3,right,12,0.21337381347620976
p09,1,2,6,go,right,right,1,weak,0.143,184.547,178.4,0.2,178.65,0.2,178.85,0.03333333333333333,178.88333333333333,0.016666666666666666,178.9,1.3,right,12,0.21332660032931017
p09,1,2,7,Rest,Rest,Rest,Rest,Rest,Rest,Rest,180.2,1.8,Rest,Rest,Rest,Rest,Rest,Rest,Rest,Rest,Rest,Rest,1.8
p09,1,2,8,nogo,left,right,0,strong,0.374,188.405,182.0,0.2,182.25,0.016666666666666666,182.26666666666668,0.03333333333333333,182.3,0.2,182.5,1.3,right,12,0.017671793546469416
p09,1,2,9,Rest,Rest,Rest,Rest,Rest,Rest,Rest,183.8,1.8,Rest,Rest,Rest,Rest,Rest,Rest,Rest,Rest,Rest,Rest,1.8
p09,1,2,10,nogo,left,NA,1,weak,NA,NA,185.6,0.2,185.85,0.2,186.05,0.03333333333333333,186.08333333333334,0.016666666666666666,186.1,1.3,right,12,0.2134040181626915
p09,1,2,11,Rest,Rest,Rest,Rest,Rest,Rest,Rest,187.4,1.8,Rest,Rest,Rest,Rest,Rest,Rest,Rest,Rest,Rest,Rest,1.8
p09,1,2,12,go,right,right,1,weak,0.338,196.013,189.2,0.2,189.45,0.2,189.65,0.03333333333333333,189.68333333333334,0.016666666666666666,189.7,1.3,right,12,0.21331428385383333
p09,1,2,13,go,right,right,1,strong,0.303,197.684,191.0,0.2,191.25,0.016666666666666666,191.26666666666668,0.03333333333333333,191.3,0.2,191.5,1.3,right,12,0.017844517424236983
p09,1,2,14,go,right,right,1,weak,0.125,199.409,192.8,0.2,193.05,0.2,193.25,0.03333333333333333,193.28333333333333,0.016666666666666666,193.3,1.3,right,12,0.21305886365371407
p09,1,2,15,go,right,right,1,weak,0.089,201.276,194.6,0.2,194.85,0.2,195.05,0.03333333333333333,195.08333333333334,0.016666666666666666,195.1,1.3,right,12,0.2134377418406075
p09,1,2,16,go,right,right,1,weak,0.658,203.747,196.4,0.2,196.65,0.2,196.85,0.03333333333333333,196.88333333333333,0.016666666666666666,196.9,1.3,right,12,0.21336120375417522
p09,1,2,17,nogo,left,right,0,strong,0.445,205.24,198.2,0.2,198.45,0.016666666666666666,198.46666666666667,0.03333333333333333,198.5,0.2,198.7,1.3,right,12,0.017794371779018547
p09,1,2,18,nogo,left,NA,1,weak,NA,NA,200.0,0.2,200.25,0.2,200.45,0.03333333333333333,200.48333333333332,0.016666666666666666,200.5,1.3,right,12,0.21331076486239908
p09,1,2,19,go,right,right,1,strong,0.41,208.814,201.8,0.2,202.05,0.016666666666666666,202.06666666666666,0.03333333333333333,202.1,0.2,202.3,1.3,right,12,0.01776709959085565
p09,1,2,20,nogo,left,right,0,strong,0.392,210.503,203.6,0.2,203.85,0.016666666666666666,203.86666666666667,0.03333333333333333,203.9,0.2,204.1,1.3,right,12,0.017741000396199524
p09,1,2,21,nogo,left,NA,1,weak,NA,NA,205.4,0.2,205.65,0.2,205.85,0.03333333333333333,205.88333333333333,0.016666666666666666,205.9,1.3,right,12,0.2133063661203778
p09,1,2,22,nogo,left,right,0,strong,0.356,214.076,207.2,0.2,207.45,0.016666666666666666,207.46666666666667,0.03333333333333333,207.5,0.2,207.7,1.3,right,12,0.01760375969024608
p09,1,2,23,Rest,Rest,Rest,Rest,Rest,Rest,Rest,209.0,1.8,Rest,Rest,Rest,Rest,Rest,Rest,Rest,Rest,Rest,Rest,1.8
p09,1,2,24,nogo,left,NA,1,weak,NA,NA,210.8,0.2,211.05,0.2,211.25,0.03333333333333333,211.28333333333333,0.016666666666666666,211.3,1.3,right,12,0.21333099906769348
p09,1,2,25,Rest,Rest,Rest,Rest,Rest,Rest,Rest,212.6,1.8,Rest,Rest,Rest,Rest,Rest,Rest,Rest,Rest,Rest,Rest,1.8
p09,1,2,26,nogo,left,NA,1,weak,NA,NA,214.4,0.2,214.65,0.2,214.85,0.03333333333333333,214.88333333333333,0.016666666666666666,214.9,1.3,right,12,0.2133081256179139
p09,1,2,27,go,right,right,1,weak,0.676,223.943,216.2,0.2,216.45,0.2,216.65,0.03333333333333333,216.68333333333334,0.016666666666666666,216.7,1.3,right,12,0.21341164264595136
p09,1,2,28,nogo,left,NA,1,weak,NA,NA,218.0,0.2,218.25,0.2,218.45,0.03333333333333333,218.48333333333332,0.016666666666666666,218.5,1.3,right,12,0.21318466763113975
p09,1,2,29,go,right,right,1,strong,0.516,227.392,219.8,0.2,220.05,0.016666666666666666,220.06666666666666,0.03333333333333333,220.1,0.2,220.3,1.3,right,12,0.017727510923577938
p09,1,2,30,catch,NA,right,1,catch,0.516,229.045,221.6,0.2,221.85,0.0,221.85,0.0,221.85,0.25,222.1,1.3,right,12,1.7594964447198436e-05
p09,1,2,31,catch,NA,right,1,catch,0.8,230.983,223.4,0.2,223.65,0.0,223.65,0.0,223.65,0.25,223.9,1.3,right,12,1.7301714251516387e-05
p09,1,2,32,go,right,right,1,weak,0.214,232.298,225.2,0.2,225.45,0.2,225.65,0.03333333333333333,225.68333333333334,0.016666666666666666,225.7,1.3,right,12,0.21332044208975276
p09,1,2,33,Rest,Rest,Rest,Rest,Rest,Rest,Rest,227.0,1.8,Rest,Rest,Rest,Rest,Rest,Rest,Rest,Rest,Rest,Rest,1.8
p09,1,2,34,nogo,left,right,0,strong,0.392,236.103,228.8,0.2,229.05,0.016666666666666666,229.06666666666666,0.03333333333333333,229.1,0.2,229.3,1.3,right,12,0.0177682725880004
p09,1,2,35,go,right,right,1,strong,0.498,237.916,230.6,0.2,230.85,0.016666666666666666,230.86666666666667,0.03333333333333333,230.9,0.2,231.1,1.3,right,12,0.01762282090203371
p09,1,2,36,Rest,Rest,Rest,Rest,Rest,Rest,Rest,232.4,1.8,Rest,Rest,Rest,Rest,Rest,Rest,Rest,Rest,Rest,Rest,1.8
p09,1,2,37,nogo,left,NA,1,weak,NA,NA,234.2,0.2,234.45,0.2,234.65,0.03333333333333333,234.68333333333334,0.016666666666666666,234.7,1.3,right,12,0.21329404964853893
p09,1,2,38,go,right,right,1,strong,0.445,243.392,236.0,0.2,236.25,0.016666666666666666,236.26666666666668,0.03333333333333333,236.3,0.2,236.5,1.3,right,12,0.017884985838463763
p09,1,2,39,nogo,left,right,0,strong,0.658,245.312,237.8,0.2,238.05,0.016666666666666666,238.06666666666666,0.03333333333333333,238.1,0.2,238.3,1.3,right,12,0.017720766190905124
p09,1,2,40,Rest,Rest,Rest,Rest,Rest,Rest,Rest,239.6,1.8,Rest,Rest,Rest,Rest,Rest,Rest,Rest,Rest,Rest,Rest,1.8
p09,1,2,41,go,right,right,1,strong,0.356,248.637,241.4,0.2,241.65,0.016666666666666666,241.66666666666666,0.03333333333333333,241.7,0.2,241.9,1.3,right,12,0.01779495828304789
p09,1,2,42,Rest,Rest,Rest,Rest,Rest,Rest,Rest,243.2,1.8,Rest,Rest,Rest,Rest,Rest,Rest,Rest,Rest,Rest,Rest,1.8
p09,1,2,43,nogo,left,right,0,strong,0.48,252.387,245.0,0.2,245.25,0.016666666666666666,245.26666666666668,0.03333333333333333,245.3,0.2,245.5,1.3,right,12,0.01760258669310133
p09,1,2,44,catch,NA,right,1,catch,0.694,254.254,246.8,0.2,247.05,0.0,247.05,0.0,247.05,0.25,247.3,1.3,right,12,1.7594964447198436e-05
p09,1,2,45,nogo,left,NA,1,strong,NA,NA,248.6,0.2,248.85,0.016666666666666666,248.86666666666667,0.03333333333333333,248.9,0.2,249.1,1.3,right,12,0.017784987801860552
p09,1,2,1,nogo,left,right,0,strong,0.427,261.668,252.6,0.2,252.85,0.016666666666666666,252.86666666666667,0.03333333333333333,252.9,0.2,253.1,1.3,right,12,0.017779122816136805
p09,1,2,2,catch,NA,right,1,catch,0.498,263.392,254.4,0.2,254.65,0.0,254.65,0.0,254.65,0.25,254.9,1.3,right,12,1.730171061353758e-05
p09,1,2,3,go,right,right,1,strong,0.463,265.063,256.2,0.2,256.45,0.016666666666666666,256.46666666666664,0.03333333333333333,256.5,0.2,256.7,1.3,right,12,0.01784657017196878
p09,1,2,4,nogo,left,NA,1,weak,NA,NA,258.0,0.2,258.25,0.2,258.45,0.03333333333333333,258.48333333333335,0.016666666666666666,258.5,1.3,right,12,0.21328877115956857
p09,1,2,5,nogo,left,NA,1,weak,NA,NA,259.8,0.2,260.05,0.2,260.25,0.03333333333333333,260.28333333333336,0.016666666666666666,260.3,1.3,right,12,0.21338671644843998
p09,1,2,6,go,right,right,1,strong,0.356,270.468,261.6,0.2,261.85,0.016666666666666666,261.8666666666667,0.03333333333333333,261.9,0.2,262.1,1.3,right,12,0.017746278885169886
p09,1,2,7,nogo,left,right,0,strong,0.32,272.139,263.4,0.2,263.65,0.016666666666666666,263.6666666666667,0.03333333333333333,263.7,0.2,263.9,1.3,right,12,0.017792905535316095
p09,1,2,8,nogo,left,right,0,strong,0.321,273.846,265.2,0.2,265.45,0.016666666666666666,265.46666666666664,0.03333333333333333,265.5,0.2,265.7,1.3,right,12,0.017790852791222278
p09,1,2,9,go,right,right,1,strong,0.587,275.819,267.0,0.2,267.25,0.016666666666666666,267.26666666666665,0.03333333333333333,267.3,0.2,267.5,1.3,right,12,0.017633377879974432
p09,1,2,10,Rest,Rest,Rest,Rest,Rest,Rest,Rest,268.8,1.8,Rest,Rest,Rest,Rest,Rest,Rest,Rest,Rest,Rest,Rest,1.8
p09,1,2,11,go,right,right,1,strong,0.374,279.232,270.6,0.2,270.85,0.016666666666666666,270.8666666666667,0.03333333333333333,270.9,0.2,271.1,1.3,right,12,0.017876481604616856
p09,1,2,12,go,right,right,1,weak,0.232,280.992,272.4,0.2,272.65,0.2,272.85,0.03333333333333333,272.8833333333333,0.016666666666666666,272.9,1.3,right,12,0.21313716123404447
p09,1,2,13,nogo,left,NA,1,weak,NA,NA,274.2,0.2,274.45,0.2,274.65,0.03333333333333333,274.68333333333334,0.016666666666666666,274.7,1.3,right,12,0.21334096954888082
p09,1,2,14,nogo,left,right,0,weak,0.249,284.815,276.0,0.2,276.25,0.2,276.45,0.03333333333333333,276.48333333333335,0.016666666666666666,276.5,1.3,right,12,0.21345885579285095
p09,1,2,15,nogo,left,NA,1,weak,NA,NA,277.8,0.2,278.05,0.2,278.25,0.03333333333333333,278.28333333333336,0.016666666666666666,278.3,1.3,right,12,0.2133148703542247
p09,1,2,16,nogo,left,right,0,strong,0.409,288.583,279.6,0.2,279.85,0.016666666666666666,279.8666666666667,0.03333333333333333,279.9,0.2,280.1,1.3,right,12,0.017685869515844388
p09,1,2,17,Rest,Rest,Rest,Rest,Rest,Rest,Rest,281.4,1.8,Rest,Rest,Rest,Rest,Rest,Rest,Rest,Rest,Rest,Rest,1.8
p09,1,2,18,catch,NA,right,1,catch,0.374,292.121,283.2,0.2,283.45,0.0,283.45,0.0,283.45,0.25,283.7,1.3,right,12,1.7301714251516387e-05
p09,1,2,19,Rest,Rest,Rest,Rest,Rest,Rest,Rest,285.0,3.6,Rest,Rest,Rest,Rest,Rest,Rest,Rest,Rest,Rest,Rest,3.6
p09,1,2,20,go,right,right,1,weak,0.232,297.722,288.6,0.2,288.85,0.2,289.05,0.03333333333333333,289.0833333333333,0.016666666666666666,289.1,1.3,right,12,0.21335416577130673
p09,1,2,21,Rest,Rest,Rest,Rest,Rest,Rest,Rest,290.4,3.6,Rest,Rest,Rest,Rest,Rest,Rest,Rest,Rest,Rest,Rest,3.6
p09,1,2,22,nogo,left,right,0,strong,0.409,303.446,294.0,0.2,294.25,0.016666666666666666,294.26666666666665,0.03333333333333333,294.3,0.2,294.5,1.3,right,12,0.017713141704007285
p09,1,2,23,go,right,right,1,weak,0.231,305.17,295.8,0.2,296.05,0.2,296.25,0.03333333333333333,296.28333333333336,0.016666666666666666,296.3,1.3,right,12,0.21334566153745982
p09,1,2,24,go,right,right,1,strong,0.32,306.966,297.6,0.2,297.85,0.016666666666666666,297.8666666666667,0.03333333333333333,297.9,0.2,298.1,1.3,right,12,0.017743346394127002
p09,1,2,25,go,right,right,1,weak,0.249,308.797,299.4,0.2,299.65,0.2,299.85,0.03333333333333333,299.8833333333333,0.016666666666666666,299.9,1.3,right,12,0.21349668496259255
p09,1,2,26,Rest,Rest,Rest,Rest,Rest,Rest,Rest,301.2,1.8,Rest,Rest,Rest,Rest,Rest,Rest,Rest,Rest,Rest,Rest,1.8
p09,1,2,27,go,right,right,1,strong,0.73,312.904,303.0,0.2,303.25,0.016666666666666666,303.26666666666665,0.03333333333333333,303.3,0.2,303.5,1.3,right,12,0.01776182110188529
p09,1,2,28,nogo,left,right,0,strong,0.356,314.238,304.8,0.2,305.05,0.016666666666666666,305.06666666666666,0.03333333333333333,305.1,0.2,305.3,1.3,right,12,0.01779965026798891
p09,1,2,29,Rest,Rest,Rest,Rest,Rest,Rest,Rest,306.6,3.6,Rest,Rest,Rest,Rest,Rest,Rest,Rest,Rest,Rest,Rest,3.6
p09,1,2,30,nogo,left,right,0,strong,0.445,319.873,310.2,0.2,310.45,0.016666666666666666,310.46666666666664,0.03333333333333333,310.5,0.2,310.7,1.3,right,12,0.017862112385046203
p09,1,2,31,go,right,right,1,strong,0.392,321.526,312.0,0.2,312.25,0.016666666666666666,312.26666666666665,0.03333333333333333,312.3,0.2,312.5,1.3,right,12,0.01784393092384562
p09,1,2,32,nogo,left,right,0,weak,0.427,323.464,313.8,0.2,314.05,0.2,314.25,0.03333333333333333,314.28333333333336,0.016666666666666666,314.3,1.3,right,12,0.2132057815870212
p09,1,2,33,nogo,left,right,0,strong,0.463,325.206,315.6,0.2,315.85,0.016666666666666666,315.8666666666667,0.03333333333333333,315.9,0.2,316.1,1.3,right,12,0.01774305314393132
p09,1,2,34,nogo,left,NA,1,weak,NA,NA,317.4,0.2,317.65,0.2,317.85,0.03333333333333333,317.8833333333333,0.016666666666666666,317.9,1.3,right,12,0.21335592526520486
p09,1,2,35,go,right,NA,0,weak,NA,NA,319.2,0.2,319.45,0.2,319.65,0.03333333333333333,319.68333333333334,0.016666666666666666,319.7,1.3,right,12,0.21346530727896607
p09,1,2,36,go,right,right,1,weak,0.445,330.895,321.0,0.2,321.25,0.2,321.45,0.03333333333333333,321.48333333333335,0.016666666666666666,321.5,1.3,right,12,0.21337146748192026
p09,1,2,37,go,right,right,1,weak,0.356,332.708,322.8,0.2,323.05,0.2,323.25,0.03333333333333333,323.28333333333336,0.016666666666666666,323.3,1.3,right,12,0.21330314037913922
p09,1,2,38,go,right,right,1,weak,0.125,334.38,324.6,0.2,324.85,0.2,325.05,0.03333333333333333,325.0833333333333,0.016666666666666666,325.1,1.3,right,12,0.21343598234307137
p09,1,2,39,nogo,left,NA,1,weak,NA,NA,326.4,0.2,326.65,0.2,326.85,0.03333333333333333,326.8833333333333,0.016666666666666666,326.9,1.3,right,12,0.21359404375471058
p09,1,2,40,catch,NA,right,1,catch,0.552,338.362,328.2,0.2,328.45,0.0,328.45,0.0,328.45,0.25,328.7,1.3,right,12,1.3196222425904125e-05
p09,1,2,41,go,right,right,1,strong,0.321,339.838,330.0,0.2,330.25,0.016666666666666666,330.26666666666665,0.03333333333333333,330.3,0.2,330.5,1.3,right,12,0.01769877248807461
p09,1,2,42,catch,NA,right,1,catch,0.356,341.526,331.8,0.2,332.05,0.0,332.05,0.0,332.05,0.25,332.3,1.3,right,12,1.7888214642880484e-05
