subid,session,run,trial,trial_type,side,response,correct,strength,response_time,cumulative_response_time,fixation_onset,fixation_dur,stim_onset,stim_dur,blank_onset,blank_dur,mask_onset,mask_dur,response_onset,response_dur,go_side,Staircase_stimulus,Presentation Duration
p09,1,4,1,nogo,left,right,0,weak,0.765,1.182,0.0,0.2,0.25,0.1,0.35,0.03333333333333333,0.38333333333333336,0.11666666666666667,0.5,1.3,right,6,0.10670142258459236
p09,1,4,2,go,right,right,1,strong,0.498,2.622,1.8,0.2,2.05,0.016666666666666666,2.066666666666667,0.03333333333333333,2.1,0.2,2.3,1.3,right,6,0.017853608154837275
p09,1,4,3,go,right,right,1,weak,0.321,4.24,3.6,0.2,3.85,0.1,3.95,0.03333333333333333,3.9833333333333334,0.11666666666666667,4.1,1.3,right,6,0.1066096355280024
p09,1,4,4,nogo,left,NA,1,weak,NA,NA,5.4,0.2,5.65,0.1,5.75,0.03333333333333333,5.783333333333333,0.11666666666666667,5.9,1.3,right,6,0.10656183588434942
p09,1,4,5,go,right,right,1,weak,0.552,8.062,7.2,0.2,7.45,0.1,7.55,0.03333333333333333,7.583333333333333,0.11666666666666667,7.7,1.3,right,6,0.10670670106992475
p09,1,4,6,Rest,Rest,Rest,Rest,Rest,Rest,Rest,9.0,1.8,Rest,Rest,Rest,Rest,Rest,Rest,Rest,Rest,Rest,Rest,1.8
p09,1,4,7,nogo,left,right,0,strong,0.641,11.777,10.8,0.2,11.05,0.016666666666666666,11.066666666666666,0.03333333333333333,11.1,0.2,11.3,1.3,right,6,0.017804635510401567
p09,1,4,8,nogo,left,right,0,strong,0.676,13.52,12.6,0.2,12.85,0.016666666666666666,12.866666666666667,0.03333333333333333,12.9,0.2,13.1,1.3,right,6,0.01774921137985075
p09,1,4,9,catch,NA,right,1,catch,0.534,15.031,14.4,0.2,14.65,0.0,14.65,0.0,14.65,0.25,14.9,1.3,right,6,1.818145756260492e-05
p09,1,4,10,nogo,left,NA,1,weak,NA,NA,16.2,0.2,16.45,0.1,16.55,0.03333333333333333,16.583333333333332,0.11666666666666667,16.7,1.3,right,6,0.10681901557836682
p09,1,4,11,go,right,NA,0,strong,NA,NA,18.0,0.2,18.25,0.016666666666666666,18.266666666666666,0.03333333333333333,18.3,0.2,18.5,1.3,right,6,0.017701704979117494
p09,1,4,12,nogo,left,NA,1,weak,NA,NA,19.8,0.2,20.05,0.1,20.15,0.03333333333333333,20.183333333333334,0.11666666666666667,20.3,1.3,right,6,0.1068099248514045
p09,1,4,13,Rest,Rest,Rest,Rest,Rest,Rest,Rest,21.6,1.8,Rest,Rest,Rest,Rest,Rest,Rest,Rest,Rest,Rest,Rest,1.8
p09,1,4,14,catch,NA,right,1,catch,0.676,24.044,23.4,0.2,23.65,0.0,23.65,0.0,23.65,0.25,23.9,1.3,right,6,1.9940958736697212e-05
p09,1,4,15,nogo,left,right,0,strong,0.409,25.484,25.2,0.2,25.45,0.016666666666666666,25.466666666666665,0.03333333333333333,25.5,0.2,25.7,1.3,right,6,0.01785155540710548
p09,1,4,16,Rest,Rest,Rest,Rest,Rest,Rest,Rest,27.0,5.4,Rest,Rest,Rest,Rest,Rest,Rest,Rest,Rest,Rest,Rest,5.4
p09,1,4,17,go,right,right,1,weak,0.409,33.04,32.4,0.2,32.65,0.1,32.75,0.03333333333333333,32.78333333333333,0.11666666666666667,32.9,1.3,right,6,0.10664130646182457
p09,1,4,18,nogo,left,right,0,strong,0.445,34.782,34.2,0.2,34.45,0.016666666666666666,34.46666666666667,0.03333333333333333,34.5,0.2,34.7,1.3,right,6,0.017800236772018252
p09,1,4,19,go,right,right,1,weak,0.356,36.489,36.0,0.2,36.25,0.1,36.35,0.03333333333333333,36.38333333333333,0.11666666666666667,36.5,1.3,right,6,0.10648471129752579
p09,1,4,20,nogo,left,right,0,strong,0.445,38.284,37.8,0.2,38.05,0.016666666666666666,38.06666666666667,0.03333333333333333,38.1,0.2,38.3,1.3,right,6,0.017743346394127002
p09,1,4,21,nogo,left,NA,1,weak,NA,NA,39.6,0.2,39.85,0.1,39.95,0.03333333333333333,39.983333333333334,0.11666666666666667,40.1,1.3,right,6,0.10676857668659068
p09,1,4,22,Rest,Rest,Rest,Rest,Rest,Rest,Rest,41.4,1.8,Rest,Rest,Rest,Rest,Rest,Rest,Rest,Rest,Rest,Rest,1.8
p09,1,4,23,go,right,right,1,weak,0.747,44.098,43.2,0.2,43.45,0.1,43.55,0.03333333333333333,43.583333333333336,0.11666666666666667,43.7,1.3,right,6,0.1065762051002821
p09,1,4,24,Rest,Rest,Rest,Rest,Rest,Rest,Rest,45.0,1.8,Rest,Rest,Rest,Rest,Rest,Rest,Rest,Rest,Rest,Rest,1.8
p09,1,4,25,go,right,right,1,strong,0.409,47.387,46.8,0.2,47.05,0.016666666666666666,47.06666666666667,0.03333333333333333,47.1,0.2,47.3,1.3,right,6,0.01782252372140647
p09,1,4,26,nogo,left,right,0,strong,0.445,49.129,48.6,0.2,48.85,0.016666666666666666,48.86666666666667,0.03333333333333333,48.9,0.2,49.1,1.3,right,6,0.017844517424236983
p09,1,4,27,catch,NA,right,1,catch,0.445,50.782,50.4,0.2,50.65,0.0,50.65,0.0,50.65,0.25,50.9,1.3,right,6,1.8474711396265775e-05
p09,1,4,28,go,right,right,1,strong,0.445,52.489,52.2,0.2,52.45,0.016666666666666666,52.46666666666667,0.03333333333333333,52.5,0.2,52.7,1.3,right,6,0.017912844527018024
p09,1,4,29,Rest,Rest,Rest,Rest,Rest,Rest,Rest,54.0,1.8,Rest,Rest,Rest,Rest,Rest,Rest,Rest,Rest,Rest,Rest,1.8
p09,1,4,30,go,right,right,1,strong,0.498,56.169,55.8,0.2,56.05,0.016666666666666666,56.06666666666667,0.03333333333333333,56.1,0.2,56.3,1.3,right,6,0.017816658735682722
p09,1,4,31,nogo,left,right,0,strong,0.392,57.769,57.6,0.2,57.85,0.016666666666666666,57.86666666666667,0.03333333333333333,57.9,0.2,58.1,1.3,right,6,0.01784774316547555
p09,1,4,32,go,right,right,1,weak,0.409,59.582,59.4,0.2,59.65,0.1,59.75,0.03333333333333333,59.78333333333333,0.11666666666666667,59.9,1.3,right,6,0.10669555759523064
p09,1,4,33,go,right,right,1,strong,0.498,61.378,61.2,0.2,61.45,0.016666666666666666,61.46666666666667,0.03333333333333333,61.5,0.2,61.7,1.3,right,6,0.01781636548548704
p09,1,4,34,catch,NA,right,1,catch,0.445,62.978,63.0,0.2,63.25,0.0,63.25,0.0,63.25,0.25,63.5,1.3,right,6,1.8767957953969017e-05
p09,1,4,35,go,right,right,1,weak,0.747,65.076,64.8,0.2,65.05,0.1,65.15,0.03333333333333333,65.18333333333334,0.11666666666666667,65.3,1.3,right,6,0.10680904510081746
p09,1,4,36,go,right,right,1,strong,0.569,66.605,66.6,0.2,66.85,0.016666666666666666,66.86666666666666,0.03333333333333333,66.9,0.2,67.1,1.3,right,6,0.017821643974457402
p09,1,4,37,nogo,left,right,0,strong,0.356,68.098,68.4,0.2,68.65,0.016666666666666666,68.66666666666667,0.03333333333333333,68.7,0.2,68.9,1.3,right,6,0.017786454049200984
p09,1,4,38,go,right,right,1,weak,0.356,69.894,70.2,0.2,70.45,0.1,70.55,0.03333333333333333,70.58333333333333,0.11666666666666667,70.7,1.3,right,6,0.10668969260950689
p09,1,4,39,nogo,left,NA,1,weak,NA,NA,72.0,0.2,72.25,0.1,72.35,0.03333333333333333,72.38333333333334,0.11666666666666667,72.5,1.3,right,6,0.1067011293307587
p09,1,4,40,nogo,left,NA,1,weak,NA,NA,73.8,0.2,74.05,0.1,74.15,0.03333333333333333,74.18333333333334,0.11666666666666667,74.3,1.3,right,6,0.10663426847895607
p09,1,4,41,go,right,right,1,strong,0.569,75.405,75.6,0.2,75.85,0.016666666666666666,75.86666666666666,0.03333333333333333,75.9,0.2,76.1,1.3,right,6,0.017834840196883306
p09,1,4,42,Rest,Rest,Rest,Rest,Rest,Rest,Rest,77.4,1.8,Rest,Rest,Rest,Rest,Rest,Rest,Rest,Rest,Rest,Rest,1.8
p09,1,4,43,nogo,left,right,0,weak,0.48,79.031,79.2,0.2,79.45,0.1,79.55,0.03333333333333333,79.58333333333333,0.11666666666666667,79.7,1.3,right,6,0.107378828630317
p09,1,4,1,nogo,left,right,0,weak,0.267,87.014,85.2,0.2,85.45,0.1,85.55,0.03333333333333333,85.58333333333333,0.11666666666666667,85.7,1.3,right,6,0.1067187242952059
p09,1,4,2,Rest,Rest,Rest,Rest,Rest,Rest,Rest,87.0,1.8,Rest,Rest,Rest,Rest,Rest,Rest,Rest,Rest,Rest,Rest,1.8
p09,1,4,3,go,right,right,1,weak,0.516,90.978,88.8,0.2,89.05,0.1,89.15,0.03333333333333333,89.18333333333334,0.11666666666666667,89.3,1.3,right,6,0.10660230429493822
p09,1,4,4,nogo,left,right,0,strong,0.623,92.792,90.6,0.2,90.85,0.016666666666666666,90.86666666666666,0.03333333333333333,90.9,0.2,91.1,1.3,right,6,0.017676485535048414
p09,1,4,5,nogo,left,right,0,strong,0.516,94.392,92.4,0.2,92.65,0.016666666666666666,92.66666666666667,0.03333333333333333,92.7,0.2,92.9,1.3,right,6,0.017796717776946025
p09,1,4,6,go,right,right,1,strong,0.338,95.921,94.2,0.2,94.45,0.016666666666666666,94.46666666666667,0.03333333333333333,94.5,0.2,94.7,1.3,right,6,0.017816951985878404
p09,1,4,7,go,right,right,1,strong,0.534,97.823,96.0,0.2,96.25,0.016666666666666666,96.26666666666667,0.03333333333333333,96.3,0.2,96.5,1.3,right,6,0.01784774316547555
p09,1,4,8,go,right,right,1,strong,0.534,99.529,97.8,0.2,98.05,0.016666666666666666,98.06666666666666,0.03333333333333333,98.1,0.2,98.3,1.3,right,6,0.017712261960696196
p09,1,4,9,nogo,left,right,0,strong,0.427,101.129,99.6,0.2,99.85,0.016666666666666666,99.86666666666666,0.03333333333333333,99.9,0.2,100.1,1.3,right,6,0.017841878179751802
p09,1,4,10,go,right,right,1,strong,0.391,102.801,101.4,0.2,101.65,0.016666666666666666,101.66666666666667,0.03333333333333333,101.7,0.2,101.9,1.3,right,6,0.017844810670794686
p09,1,4,11,go,right,right,1,weak,1.067,105.272,103.2,0.2,103.45,0.1,103.55,0.03333333333333333,103.58333333333333,0.11666666666666667,103.7,1.3,right,6,0.10675156822617282
p09,1,4,12,Rest,Rest,Rest,Rest,Rest,Rest,Rest,105.0,3.6,Rest,Rest,Rest,Rest,Rest,Rest,Rest,Rest,Rest,Rest,3.6
p09,1,4,13,go,right,right,1,weak,0.303,110.143,108.6,0.2,108.85,0.1,108.95,0.03333333333333333,108.98333333333333,0.11666666666666667,109.1,1.3,right,6,0.10664218620877364
p09,1,4,14,go,right,right,1,weak,0.302,111.939,110.4,0.2,110.65,0.1,110.75,0.03333333333333333,110.78333333333333,0.11666666666666667,110.9,1.3,right,6,0.10660113129779347
p09,1,4,15,catch,NA,right,1,catch,0.587,113.876,112.2,0.2,112.45,0.0,112.45,0.0,112.45,0.25,112.7,1.3,right,6,1.8474711396265775e-05
p09,1,4,16,go,right,right,1,weak,0.303,115.387,114.0,0.2,114.25,0.1,114.35,0.03333333333333333,114.38333333333334,0.11666666666666667,114.5,1.3,right,6,0.10655245190355345
p09,1,4,17,Rest,Rest,Rest,Rest,Rest,Rest,Rest,115.8,1.8,Rest,Rest,Rest,Rest,Rest,Rest,Rest,Rest,Rest,Rest,1.8
p09,1,4,18,nogo,left,right,0,strong,0.392,119.103,117.6,0.2,117.85,0.016666666666666666,117.86666666666666,0.03333333333333333,117.9,0.2,118.1,1.3,right,6,0.017742466643539956
p09,1,4,19,Rest,Rest,Rest,Rest,Rest,Rest,Rest,119.4,1.8,Rest,Rest,Rest,Rest,Rest,Rest,Rest,Rest,Rest,Rest,1.8
p09,1,4,20,go,right,right,1,strong,0.196,122.534,121.2,0.2,121.45,0.016666666666666666,121.46666666666667,0.03333333333333333,121.5,0.2,121.7,1.3,right,6,0.017776190321455942
p09,1,4,21,nogo,left,right,0,weak,0.32,124.454,123.0,0.2,123.25,0.1,123.35,0.03333333333333333,123.38333333333334,0.11666666666666667,123.5,1.3,right,6,0.10672458928456763
p09,1,4,22,nogo,left,NA,1,weak,NA,NA,124.8,0.2,125.05,0.1,125.15,0.03333333333333333,125.18333333333334,0.11666666666666667,125.3,1.3,right,6,0.10662400474757305
p09,1,4,23,nogo,left,right,0,strong,0.658,128.294,126.6,0.2,126.85,0.016666666666666666,126.86666666666666,0.03333333333333333,126.9,0.2,127.1,1.3,right,6,0.01782135072426172
p09,1,4,24,catch,NA,right,1,catch,0.836,130.125,128.4,0.2,128.65,0.0,128.65,0.0,128.65,0.25,128.9,1.3,right,6,1.8181461200583726e-05
p09,1,4,25,catch,NA,right,1,catch,0.498,131.441,130.2,0.2,130.45,0.0,130.45,0.0,130.45,0.25,130.7,1.3,right,6,2.60991946561262e-05
p09,1,4,26,nogo,left,right,0,weak,0.232,132.97,132.0,0.2,132.25,0.1,132.35,0.03333333333333333,132.38333333333333,0.11666666666666667,132.5,1.3,right,6,0.10673250701438519
p09,1,4,27,Rest,Rest,Rest,Rest,Rest,Rest,Rest,133.8,3.6,Rest,Rest,Rest,Rest,Rest,Rest,Rest,Rest,Rest,Rest,3.6
p09,1,4,28,go,right,NA,0,weak,NA,NA,137.4,0.2,137.65,0.1,137.75,0.03333333333333333,137.78333333333333,0.11666666666666667,137.9,1.3,right,6,0.10670142258459236
p09,1,4,29,nogo,left,right,0,strong,0.729,140.81,139.2,0.2,139.45,0.016666666666666666,139.46666666666667,0.03333333333333333,139.5,0.2,139.7,1.3,right,6,0.017825456216087332
p09,1,4,30,Rest,Rest,Rest,Rest,Rest,Rest,Rest,141.0,1.8,Rest,Rest,Rest,Rest,Rest,Rest,Rest,Rest,Rest,Rest,1.8
p09,1,4,31,nogo,left,NA,1,weak,NA,NA,142.8,0.2,143.05,0.1,143.15,0.03333333333333333,143.18333333333334,0.11666666666666667,143.3,1.3,right,6,0.10658676207822282
p09,1,4,32,nogo,left,right,0,strong,0.409,145.912,144.6,0.2,144.85,0.016666666666666666,144.86666666666667,0.03333333333333333,144.9,0.2,145.1,1.3,right,6,0.01779847727448214
p09,1,4,33,nogo,left,NA,1,weak,NA,NA,146.4,0.2,146.65,0.1,146.75,0.03333333333333333,146.78333333333333,0.11666666666666667,146.9,1.3,right,6,0.10666916515037883
p09,1,4,34,go,right,right,1,strong,0.498,149.503,148.2,0.2,148.45,0.016666666666666666,148.46666666666667,0.03333333333333333,148.5,0.2,148.7,1.3,right,6,0.017771791583072627
p09,1,4,35,nogo,left,right,0,strong,0.409,151.121,150.0,0.2,150.25,0.016666666666666666,150.26666666666668,0.03333333333333333,150.3,0.2,150.5,1.3,right,6,0.01772516492928844
p09,1,4,36,go,right,right,1,weak,0.267,152.775,151.8,0.2,152.05,0.1,152.15,0.03333333333333333,152.18333333333334,0.11666666666666667,152.3,1.3,right,6,0.10658324308315059
p09,1,4,37,go,right,right,1,strong,0.676,154.89,153.6,0.2,153.85,0.016666666666666666,153.86666666666667,0.03333333333333333,153.9,0.2,154.1,1.3,right,6,0.017767392841051333
p09,1,4,38,nogo,left,NA,1,weak,NA,NA,155.4,0.2,155.65,0.1,155.75,0.03333333333333333,155.78333333333333,0.11666666666666667,155.9,1.3,right,6,0.10669790358952014
p09,1,4,39,go,right,right,1,strong,0.907,158.624,157.2,0.2,157.45,0.016666666666666666,157.46666666666667,0.03333333333333333,157.5,0.2,157.7,1.3,right,6,0.017808154501835816
p09,1,4,40,catch,NA,right,1,catch,0.409,159.779,159.0,0.2,159.25,0.0,159.25,0.0,159.25,0.25,159.5,1.3,right,6,1.8474711396265775e-05
p09,1,4,41,Rest,Rest,Rest,Rest,Rest,Rest,Rest,160.8,1.8,Rest,Rest,Rest,Rest,Rest,Rest,Rest,Rest,Rest,Rest,1.8
p09,1,4,42,nogo,left,NA,1,weak,NA,NA,162.6,0.2,162.85,0.1,162.95,0.03333333333333333,162.98333333333332,0.11666666666666667,163.1,1.3,right,6,0.10656770087007317
p09,1,4,43,go,right,right,1,weak,0.392,165.273,164.4,0.2,164.65,0.1,164.75,0.03333333333333333,164.78333333333333,0.11666666666666667,164.9,1.3,right,6,0.10665244993651868
p09,1,4,1,nogo,left,NA,1,strong,NA,NA,168.4,0.2,168.65,0.016666666666666666,168.66666666666666,0.03333333333333333,168.7,0.2,168.9,1.3,right,6,0.01777560382106458
p09,1,4,2,go,right,right,1,strong,0.462,173.024,170.2,0.2,170.45,0.016666666666666666,170.46666666666667,0.03333333333333333,170.5,0.2,170.7,1.3,right,6,0.017853608154837275
p09,1,4,3,Rest,Rest,Rest,Rest,Rest,Rest,Rest,172.0,3.6,Rest,Rest,Rest,Rest,Rest,Rest,Rest,Rest,Rest,Rest,3.6
p09,1,4,4,nogo,left,NA,1,weak,NA,NA,175.6,0.2,175.85,0.1,175.95,0.03333333333333333,175.98333333333332,0.11666666666666667,176.1,1.3,right,6,0.10662077900269651
p09,1,4,5,go,right,right,1,strong,0.445,180.348,177.4,0.2,177.65,0.016666666666666666,177.66666666666666,0.03333333333333333,177.7,0.2,177.9,1.3,right,6,0.01782135072426172
p09,1,4,6,nogo,left,NA,1,weak,NA,NA,179.2,0.2,179.45,0.1,179.55,0.03333333333333333,179.58333333333334,0.11666666666666667,179.7,1.3,right,6,0.10664159971202025
p09,1,4,7,Rest,Rest,Rest,Rest,Rest,Rest,Rest,181.0,1.8,Rest,Rest,Rest,Rest,Rest,Rest,Rest,Rest,Rest,Rest,1.8
p09,1,4,8,nogo,left,right,0,strong,0.658,185.984,182.8,0.2,183.05,0.016666666666666666,183.06666666666666,0.03333333333333333,183.1,0.2,183.3,1.3,right,6,0.017661236568528693
p09,1,4,9,catch,NA,right,1,catch,0.409,187.388,184.6,0.2,184.85,0.0,184.85,0.0,184.85,0.25,185.1,1.3,right,6,1.9061208149651065e-05
p09,1,4,10,go,right,right,1,weak,0.427,189.202,186.4,0.2,186.65,0.1,186.75,0.03333333333333333,186.78333333333333,0.11666666666666667,186.9,1.3,right,6,0.10670024958380964
p09,1,4,11,nogo,left,NA,1,weak,NA,NA,188.2,0.2,188.45,0.1,188.55,0.03333333333333333,188.58333333333334,0.11666666666666667,188.7,1.3,right,6,0.10670640781972907
p09,1,4,12,nogo,left,right,0,strong,0.498,192.775,190.0,0.2,190.25,0.016666666666666666,190.26666666666668,0.03333333333333333,190.3,0.2,190.5,1.3,right,6,0.01792486775229918
p09,1,4,13,go,right,NA,0,strong,NA,NA,191.8,0.2,192.05,0.016666666666666666,192.06666666666666,0.03333333333333333,192.1,0.2,192.3,1.3,right,6,0.017902580799272982
p09,1,4,14,go,right,right,1,weak,0.285,196.064,193.6,0.2,193.85,0.1,193.95,0.03333333333333333,193.98333333333332,0.11666666666666667,194.1,1.3,right,6,0.10670904706785223
p09,1,4,15,catch,NA,right,1,catch,0.48,197.913,195.4,0.2,195.65,0.0,195.65,0.0,195.65,0.25,195.9,1.3,right,6,1.9061211787629873e-05
p09,1,4,16,nogo,left,right,0,strong,0.48,199.62,197.2,0.2,197.45,0.016666666666666666,197.46666666666667,0.03333333333333333,197.5,0.2,197.7,1.3,right,6,0.01789231707152794
p09,1,4,17,catch,NA,right,1,catch,0.303,201.095,199.0,0.2,199.25,0.0,199.25,0.0,199.25,0.25,199.5,1.3,right,6,1.8767957953969017e-05
p09,1,4,18,go,right,right,1,strong,0.943,203.442,200.8,0.2,201.05,0.016666666666666666,201.06666666666666,0.03333333333333333,201.1,0.2,201.3,1.3,right,6,0.01774803837906802
p09,1,4,19,go,right,right,1,weak,0.214,204.509,202.6,0.2,202.85,0.1,202.95,0.03333333333333333,202.98333333333332,0.11666666666666667,203.1,1.3,right,6,0.10670288882829482
p09,1,4,20,Rest,Rest,Rest,Rest,Rest,Rest,Rest,204.4,5.4,Rest,Rest,Rest,Rest,Rest,Rest,Rest,Rest,Rest,Rest,5.4
p09,1,4,21,nogo,left,NA,1,weak,NA,NA,209.8,0.2,210.05,0.1,210.15,0.03333333333333333,210.18333333333334,0.11666666666666667,210.3,1.3,right,6,0.106647464697744
p09,1,4,22,nogo,left,NA,1,weak,NA,NA,211.6,0.2,211.85,0.1,211.95,0.03333333333333333,211.98333333333332,0.11666666666666667,212.1,1.3,right,6,0.106594093311287
p09,1,4,23,go,right,right,1,weak,0.427,215.868,213.4,0.2,213.65,0.1,213.75,0.03333333333333333,213.78333333333333,0.11666666666666667,213.9,1.3,right,6,0.10715654560772236
p09,1,4,24,go,right,right,1,strong,0.961,218.109,215.2,0.2,215.45,0.016666666666666666,215.46666666666667,0.03333333333333333,215.5,0.2,215.7,1.3,right,6,0.017893783318868373
p09,1,4,25,go,right,right,1,strong,0.427,219.282,217.0,0.2,217.25,0.016666666666666666,217.26666666666668,0.03333333333333333,217.3,0.2,217.5,1.3,right,6,0.017750091130437795
p09,1,4,26,nogo,left,NA,1,weak,NA,NA,218.8,0.2,219.05,0.1,219.15,0.03333333333333333,219.18333333333334,0.11666666666666667,219.3,1.3,right,6,0.1066583149258804
p09,1,4,27,Rest,Rest,Rest,Rest,Rest,Rest,Rest,220.6,1.8,Rest,Rest,Rest,Rest,Rest,Rest,Rest,Rest,Rest,Rest,1.8
p09,1,4,28,nogo,left,right,0,strong,0.73,225.007,222.4,0.2,222.65,0.016666666666666666,222.66666666666666,0.03333333333333333,222.7,0.2,222.9,1.3,right,6,0.017789973040635232
p09,1,4,29,go,right,right,1,strong,0.356,226.34,224.2,0.2,224.45,0.016666666666666666,224.46666666666667,0.03333333333333333,224.5,0.2,224.7,1.3,right,6,0.017794078532460844
p09,1,4,30,nogo,left,right,0,strong,0.356,228.047,226.0,0.2,226.25,0.016666666666666666,226.26666666666668,0.03333333333333333,226.3,0.2,226.5,1.3,right,6,0.017849795913207345
p09,1,4,31,go,right,right,1,weak,0.623,230.109,227.8,0.2,228.05,0.1,228.15,0.03333333333333333,228.18333333333334,0.11666666666666667,228.3,1.3,right,6,0.10671344580623554
p09,1,4,32,nogo,left,NA,1,weak,NA,NA,229.6,0.2,229.85,0.1,229.95,0.03333333333333333,229.98333333333332,0.11666666666666667,230.1,1.3,right,6,0.10666183391731465
p09,1,4,33,go,right,right,1,weak,0.338,233.416,231.4,0.2,231.65,0.1,231.75,0.03333333333333333,231.78333333333333,0.11666666666666667,231.9,1.3,right,6,0.10668148162585567
p09,1,4,34,go,right,NA,0,weak,NA,NA,233.2,0.2,233.45,0.1,233.55,0.03333333333333333,233.58333333333334,0.11666666666666667,233.7,1.3,right,6,0.10682194807304768
p09,1,4,35,go,right,right,1,weak,0.267,236.936,235.0,0.2,235.25,0.1,235.35,0.03333333333333333,235.38333333333333,0.11666666666666667,235.5,1.3,right,6,0.10660758278390858
p09,1,4,36,nogo,left,right,0,strong,0.409,238.785,236.8,0.2,237.05,0.016666666666666666,237.06666666666666,0.03333333333333333,237.1,0.2,237.3,1.3,right,6,0.01770991596276872
p09,1,4,37,nogo,left,right,0,weak,0.196,240.367,238.6,0.2,238.85,0.1,238.95,0.03333333333333333,238.98333333333332,0.11666666666666667,239.1,1.3,right,6,0.10649937376729213
p09,1,4,38,catch,NA,right,1,catch,0.57,242.394,240.4,0.2,240.65,0.0,240.65,0.0,240.65,0.25,240.9,1.3,right,6,1.8474711396265775e-05
p09,1,4,39,Rest,Rest,Rest,Rest,Rest,Rest,Rest,242.2,1.8,Rest,Rest,Rest,Rest,Rest,Rest,Rest,Rest,Rest,Rest,1.8
p09,1,4,40,go,right,right,1,strong,0.338,245.789,244.0,0.2,244.25,0.016666666666666666,244.26666666666668,0.03333333333333333,244.3,0.2,244.5,1.3,right,6,0.01782662921323208
p09,1,4,41,nogo,left,right,0,strong,0.356,247.514,245.8,0.2,246.05,0.016666666666666666,246.06666666666666,0.03333333333333333,246.1,0.2,246.3,1.3,right,6,0.01785683389971382
p09,1,4,42,Rest,Rest,Rest,Rest,Rest,Rest,Rest,247.6,1.8,Rest,Rest,Rest,Rest,Rest,Rest,Rest,Rest,Rest,Rest,1.8
p09,1,4,1,nogo,left,right,0,strong,1.21,257.327,252.6,0.2,252.85,0.016666666666666666,252.86666666666667,0.03333333333333333,252.9,0.2,253.1,1.3,right,6,0.017772671326383715
p09,1,4,2,nogo,left,NA,1,weak,NA,NA,254.4,0.2,254.65,0.1,254.75,0.03333333333333333,254.78333333333333,0.11666666666666667,254.9,1.3,right,6,0.1067257622780744
p09,1,4,3,Rest,Rest,Rest,Rest,Rest,Rest,Rest,256.2,1.8,Rest,Rest,Rest,Rest,Rest,Rest,Rest,Rest,Rest,Rest,1.8
p09,1,4,4,nogo,left,NA,1,weak,NA,NA,258.0,0.2,258.25,0.1,258.35,0.03333333333333333,258.3833333333333,0.11666666666666667,258.5,1.3,right,6,0.10689496716440772
p09,1,4,5,nogo,left,NA,1,weak,NA,NA,259.8,0.2,260.05,0.1,260.15,0.03333333333333333,260.18333333333334,0.11666666666666667,260.3,1.3,right,6,0.10668676011118805
p09,1,4,6,Rest,Rest,Rest,Rest,Rest,Rest,Rest,261.6,3.6,Rest,Rest,Rest,Rest,Rest,Rest,Rest,Rest,Rest,Rest,3.6
p09,1,4,7,go,right,right,1,weak,0.303,269.363,265.2,0.2,265.45,0.1,265.55,0.03333333333333333,265.5833333333333,0.11666666666666667,265.7,1.3,right,6,0.10670582132297568
p09,1,4,8,nogo,left,right,0,strong,0.392,271.158,267.0,0.2,267.25,0.016666666666666666,267.26666666666665,0.03333333333333333,267.3,0.2,267.5,1.3,right,6,0.017616955912671983
p09,1,4,9,go,right,right,1,strong,0.321,272.794,268.8,0.2,269.05,0.016666666666666666,269.06666666666666,0.03333333333333333,269.1,0.2,269.3,1.3,right,6,0.017695546743198065
p09,1,4,10,catch,NA,right,1,catch,0.409,274.536,270.6,0.2,270.85,0.0,270.85,0.0,270.85,0.25,271.1,1.3,right,6,2.9911432648077607e-05
p09,1,4,11,go,right,right,1,weak,0.285,276.207,272.4,0.2,272.65,0.1,272.75,0.03333333333333333,272.78333333333336,0.11666666666666667,272.9,1.3,right,6,0.10654863965828554
p09,1,4,12,nogo,left,right,0,weak,0.552,278.269,274.2,0.2,274.45,0.1,274.55,0.03333333333333333,274.5833333333333,0.11666666666666667,274.7,1.3,right,6,0.1065870553284185
p09,1,4,13,go,right,right,1,weak,0.552,280.065,276.0,0.2,276.25,0.1,276.35,0.03333333333333333,276.3833333333333,0.11666666666666667,276.5,1.3,right,6,0.10670142258095439
p09,1,4,14,nogo,left,right,0,strong,0.427,281.647,277.8,0.2,278.05,0.016666666666666666,278.06666666666666,0.03333333333333333,278.1,0.2,278.3,1.3,right,6,0.017695546743198065
p09,1,4,15,nogo,left,right,0,strong,0.481,283.407,279.6,0.2,279.85,0.016666666666666666,279.8666666666667,0.03333333333333333,279.9,0.2,280.1,1.3,right,6,0.017772671326383715
p09,1,4,16,go,right,right,1,strong,0.338,284.972,281.4,0.2,281.65,0.016666666666666666,281.6666666666667,0.03333333333333333,281.7,0.2,281.9,1.3,right,6,0.01774686538192327
p09,1,4,17,go,right,right,1,weak,0.552,286.981,283.2,0.2,283.45,0.1,283.55,0.03333333333333333,283.5833333333333,0.11666666666666667,283.7,1.3,right,6,0.10682869280935847
p09,1,4,18,go,right,right,1,strong,0.587,288.723,285.0,0.2,285.25,0.016666666666666666,285.26666666666665,0.03333333333333333,285.3,0.2,285.5,1.3,right,6,0.017776776818209328
p09,1,4,19,Rest,Rest,Rest,Rest,Rest,Rest,Rest,286.8,1.8,Rest,Rest,Rest,Rest,Rest,Rest,Rest,Rest,Rest,Rest,1.8
p09,1,4,20,nogo,left,right,0,strong,0.338,292.101,288.6,0.2,288.85,0.016666666666666666,288.8666666666667,0.03333333333333333,288.9,0.2,289.1,1.3,right,6,0.01801870754934498
p09,1,4,21,go,right,NA,0,weak,NA,NA,290.4,0.2,290.65,0.1,290.75,0.03333333333333333,290.78333333333336,0.11666666666666667,290.9,1.3,right,6,0.10672312303358922
p09,1,4,22,go,right,right,1,weak,0.534,295.888,292.2,0.2,292.45,0.1,292.55,0.03333333333333333,292.5833333333333,0.11666666666666667,292.7,1.3,right,6,0.10665039719242486
p09,1,4,23,nogo,left,NA,1,weak,NA,NA,294.0,0.2,294.25,0.1,294.35,0.03333333333333333,294.3833333333333,0.11666666666666667,294.5,1.3,right,6,0.10665948792302515
p09,1,4,24,nogo,left,NA,1,weak,NA,NA,295.8,0.2,296.05,0.1,296.15,0.03333333333333333,296.18333333333334,0.11666666666666667,296.3,1.3,right,6,0.1066025975451339
p09,1,4,25,nogo,left,NA,1,weak,NA,NA,297.6,0.2,297.85,0.1,297.95,0.03333333333333333,297.98333333333335,0.11666666666666667,298.1,1.3,right,6,0.10662195200347924
p09,1,4,26,nogo,left,NA,1,strong,NA,NA,299.4,0.2,299.65,0.016666666666666666,299.6666666666667,0.03333333333333333,299.7,0.2,299.9,1.3,right,6,0.017764167099812767
p09,1,4,27,go,right,right,1,weak,1.103,305.345,301.2,0.2,301.45,0.1,301.55,0.03333333333333333,301.5833333333333,0.11666666666666667,301.7,1.3,right,6,0.10657679160067346
p09,1,4,28,catch,NA,right,1,catch,0.712,306.608,303.0,0.2,303.25,0.0,303.25,0.0,303.25,0.25,303.5,1.3,right,6,1.9061208149651065e-05
p09,1,4,29,Rest,Rest,Rest,Rest,Rest,Rest,Rest,304.8,1.8,Rest,Rest,Rest,Rest,Rest,Rest,Rest,Rest,Rest,Rest,1.8
p09,1,4,30,nogo,left,NA,1,strong,NA,NA,306.6,0.2,306.85,0.016666666666666666,306.8666666666667,0.03333333333333333,306.9,0.2,307.1,1.3,right,6,0.017766513090464287
p09,1,4,31,Rest,Rest,Rest,Rest,Rest,Rest,Rest,308.4,1.8,Rest,Rest,Rest,Rest,Rest,Rest,Rest,Rest,Rest,Rest,1.8
p09,1,4,32,catch,NA,right,1,catch,0.409,313.505,310.2,0.2,310.45,0.0,310.45,0.0,310.45,0.25,310.7,1.3,right,6,1.9061208149651065e-05
p09,1,4,33,go,right,right,1,weak,0.676,315.568,312.0,0.2,312.25,0.1,312.35,0.03333333333333333,312.3833333333333,0.11666666666666667,312.5,1.3,right,6,0.10663544147246284
p09,1,4,34,Rest,Rest,Rest,Rest,Rest,Rest,Rest,313.8,1.8,Rest,Rest,Rest,Rest,Rest,Rest,Rest,Rest,Rest,Rest,1.8
p09,1,4,35,go,right,right,1,strong,0.552,319.07,315.6,0.2,315.85,0.016666666666666666,315.8666666666667,0.03333333333333333,315.9,0.2,316.1,1.3,right,6,0.017814312737755245
p09,1,4,36,go,right,right,1,strong,0.392,320.617,317.4,0.2,317.65,0.016666666666666666,317.6666666666667,0.03333333333333333,317.7,0.2,317.9,1.3,right,6,0.017819591226725606
p09,1,4,37,nogo,left,right,0,weak,0.427,322.448,319.2,0.2,319.45,0.1,319.55,0.03333333333333333,319.5833333333333,0.11666666666666667,319.7,1.3,right,6,0.1066879331083328
p09,1,4,38,catch,NA,right,1,catch,0.48,324.154,321.0,0.2,321.25,0.0,321.25,0.0,321.25,0.25,321.5,1.3,right,6,1.9354458345333114e-05
p09,1,4,39,nogo,left,right,0,strong,0.818,326.199,322.8,0.2,323.05,0.016666666666666666,323.06666666666666,0.03333333333333333,323.1,0.2,323.3,1.3,right,6,0.017623700645344798
p09,1,4,40,Rest,Rest,Rest,Rest,Rest,Rest,Rest,324.6,1.8,Rest,Rest,Rest,Rest,Rest,Rest,Rest,Rest,Rest,Rest,1.8
p09,1,4,41,go,right,right,1,strong,0.285,329.292,326.4,0.2,326.65,0.016666666666666666,326.6666666666667,0.03333333333333333,326.7,0.2,326.9,1.3,right,6,0.017770325332094217
p09,1,4,42,Rest,Rest,Rest,Rest,Rest,Rest,Rest,328.2,1.8,Rest,Rest,Rest,Rest,Rest,Rest,Rest,Rest,Rest,Rest,1.8
p09,1,4,43,go,right,right,1,strong,0.338,332.972,330.0,0.2,330.25,0.016666666666666666,330.26666666666665,0.03333333333333333,330.3,0.2,330.5,1.3,right,6,0.017721352691296488
p09,1,4,44,go,right,right,1,strong,0.534,334.875,331.8,0.2,332.05,0.016666666666666666,332.06666666666666,0.03333333333333333,332.1,0.2,332.3,1.3,right,6,0.01773924089866341
