subid,session,run,trial,trial_type,side,response,correct,strength,response_time,cumulative_response_time,fixation_onset,fixation_dur,stim_onset,stim_dur,blank_onset,blank_dur,mask_onset,mask_dur,response_onset,response_dur,go_side,Staircase_stimulus,Presentation Duration
p09,1,3,1,go,right,right,1,strong,0.694,1.013,0.0,0.2,0.25,0.016666666666666666,0.26666666666666666,0.03333333333333333,0.3,0.2,0.5,1.3,right,6,0.017238077725778567
p09,1,3,2,Rest,Rest,Rest,Rest,Rest,Rest,Rest,1.8,1.8,Rest,Rest,Rest,Rest,Rest,Rest,Rest,Rest,Rest,Rest,1.8
p09,1,3,3,nogo,left,NA,1,weak,NA,NA,3.6,0.2,3.85,0.1,3.95,0.03333333333333333,3.9833333333333334,0.11666666666666667,4.1,1.3,right,6,0.10658793507536757
p09,1,3,4,catch,NA,right,1,catch,0.623,6.311,5.4,0.2,5.65,0.0,5.65,0.0,5.65,0.25,5.9,1.3,right,6,1.700846041785553e-05
p09,1,3,5,nogo,left,right,0,strong,0.409,7.804,7.2,0.2,7.45,0.016666666666666666,7.466666666666667,0.03333333333333333,7.5,0.2,7.7,1.3,right,6,0.01784275792670087
p09,1,3,6,go,right,right,1,weak,0.232,9.422,9.0,0.2,9.25,0.1,9.35,0.03333333333333333,9.383333333333333,0.11666666666666667,9.5,1.3,right,6,0.10674247749557253
p09,1,3,7,go,right,right,1,strong,0.392,11.289,10.8,0.2,11.05,0.016666666666666666,11.066666666666666,0.03333333333333333,11.1,0.2,11.3,1.3,right,6,0.01771519445173908
p09,1,3,8,go,right,right,1,strong,0.356,12.96,12.6,0.2,12.85,0.016666666666666666,12.866666666666667,0.03333333333333333,12.9,0.2,13.1,1.3,right,6,0.01788821157970233
p09,1,3,9,Rest,Rest,Rest,Rest,Rest,Rest,Rest,14.4,1.8,Rest,Rest,Rest,Rest,Rest,Rest,Rest,Rest,Rest,Rest,1.8
p09,1,3,10,catch,NA,right,1,catch,0.588,16.765,16.2,0.2,16.45,0.0,16.45,0.0,16.45,0.25,16.7,1.3,right,6,1.114347469410859e-05
p09,1,3,11,nogo,left,NA,1,weak,NA,NA,18.0,0.2,18.25,0.1,18.35,0.03333333333333333,18.383333333333333,0.11666666666666667,18.5,1.3,right,6,0.10663162923447089
p09,1,3,12,go,right,right,1,weak,0.427,20.196,19.8,0.2,20.05,0.1,20.15,0.03333333333333333,20.183333333333334,0.11666666666666667,20.3,1.3,right,6,0.10668881285891985
p09,1,3,13,go,right,right,1,weak,0.374,21.938,21.6,0.2,21.85,0.1,21.95,0.03333333333333333,21.983333333333334,0.11666666666666667,22.1,1.3,right,6,0.10665039719242486
p09,1,3,14,go,right,right,1,weak,0.356,23.716,23.4,0.2,23.65,0.1,23.75,0.03333333333333333,23.783333333333335,0.11666666666666667,23.9,1.3,right,6,0.10667121789811063
p09,1,3,15,nogo,left,right,0,strong,0.498,25.565,25.2,0.2,25.45,0.016666666666666666,25.466666666666665,0.03333333333333333,25.5,0.2,25.7,1.3,right,6,0.01778704054595437
p09,1,3,16,Rest,Rest,Rest,Rest,Rest,Rest,Rest,27.0,1.8,Rest,Rest,Rest,Rest,Rest,Rest,Rest,Rest,Rest,Rest,1.8
p09,1,3,17,nogo,left,NA,1,weak,NA,NA,28.8,0.2,29.05,0.1,29.15,0.03333333333333333,29.183333333333334,0.11666666666666667,29.3,1.3,right,6,0.1066876398617751
p09,1,3,18,go,right,right,1,weak,0.427,31.005,30.6,0.2,30.85,0.1,30.95,0.03333333333333333,30.983333333333334,0.11666666666666667,31.1,1.3,right,6,0.10655567764479201
p09,1,3,19,Rest,Rest,Rest,Rest,Rest,Rest,Rest,32.4,1.8,Rest,Rest,Rest,Rest,Rest,Rest,Rest,Rest,Rest,Rest,1.8
p09,1,3,20,nogo,left,right,0,strong,0.48,34.685,34.2,0.2,34.45,0.016666666666666666,34.46666666666667,0.03333333333333333,34.5,0.2,34.7,1.3,right,6,0.018123104327969486
p09,1,3,21,nogo,left,right,0,strong,0.427,36.338,36.0,0.2,36.25,0.016666666666666666,36.266666666666666,0.03333333333333333,36.3,0.2,36.5,1.3,right,6,0.01778967979043955
p09,1,3,22,catch,NA,right,1,catch,0.499,38.063,37.8,0.2,38.05,0.0,38.05,0.0,38.05,0.25,38.3,1.3,right,6,1.7301714251516387e-05
p09,1,3,23,catch,NA,right,1,catch,0.392,39.609,39.6,0.2,39.85,0.0,39.85,0.0,39.85,0.25,40.1,1.3,right,6,1.7594964447198436e-05
p09,1,3,24,nogo,left,NA,1,weak,NA,NA,41.4,0.2,41.65,0.1,41.75,0.03333333333333333,41.78333333333333,0.11666666666666667,41.9,1.3,right,6,0.10659614605901879
p09,1,3,25,go,right,right,1,strong,0.303,43.023,43.2,0.2,43.45,0.016666666666666666,43.46666666666667,0.03333333333333333,43.5,0.2,43.7,1.3,right,6,0.01770023873541504
p09,1,3,26,nogo,left,NA,1,weak,NA,NA,45.0,0.2,45.25,0.1,45.35,0.03333333333333333,45.38333333333333,0.11666666666666667,45.5,1.3,right,6,0.10669086560301366
p09,1,3,27,Rest,Rest,Rest,Rest,Rest,Rest,Rest,46.8,1.8,Rest,Rest,Rest,Rest,Rest,Rest,Rest,Rest,Rest,Rest,1.8
p09,1,3,28,go,right,right,1,weak,0.374,48.605,48.6,0.2,48.85,0.1,48.95,0.03333333333333333,48.983333333333334,0.11666666666666667,49.1,1.3,right,6,0.10666593940550229
p09,1,3,29,go,right,right,1,strong,0.41,50.347,50.4,0.2,50.65,0.016666666666666666,50.666666666666664,0.03333333333333333,50.7,0.2,50.9,1.3,right,6,0.01780258276630775
p09,1,3,30,Rest,Rest,Rest,Rest,Rest,Rest,Rest,52.2,1.8,Rest,Rest,Rest,Rest,Rest,Rest,Rest,Rest,Rest,Rest,1.8
p09,1,3,31,go,right,right,1,strong,0.338,53.903,54.0,0.2,54.25,0.016666666666666666,54.266666666666666,0.03333333333333333,54.3,0.2,54.5,1.3,right,6,0.017804049010010203
p09,1,3,32,go,right,right,1,strong,0.374,55.645,55.8,0.2,56.05,0.016666666666666666,56.06666666666667,0.03333333333333333,56.1,0.2,56.3,1.3,right,6,0.017851262160547776
p09,1,3,33,Rest,Rest,Rest,Rest,Rest,Rest,Rest,57.6,3.6,Rest,Rest,Rest,Rest,Rest,Rest,Rest,Rest,Rest,Rest,3.6
p09,1,3,34,nogo,left,NA,1,weak,NA,NA,61.2,0.2,61.45,0.1,61.55,0.03333333333333333,61.583333333333336,0.11666666666666667,61.7,1.3,right,6,0.10666447316179983
p09,1,3,35,nogo,left,NA,1,weak,NA,NA,63.0,0.2,63.25,0.1,63.35,0.03333333333333333,63.38333333333333,0.11666666666666667,63.5,1.3,right,6,0.10670875381401856
p09,1,3,36,nogo,left,right,0,strong,0.676,65.085,64.8,0.2,65.05,0.016666666666666666,65.06666666666666,0.03333333333333333,65.1,0.2,65.3,1.3,right,6,0.017771498332876945
p09,1,3,37,nogo,left,NA,1,weak,NA,NA,66.6,0.2,66.85,0.1,66.95,0.03333333333333333,66.98333333333333,0.11666666666666667,67.1,1.3,right,6,0.10671022006499697
p09,1,3,38,go,right,right,1,weak,0.374,68.374,68.4,0.2,68.65,0.1,68.75,0.03333333333333333,68.78333333333333,0.11666666666666667,68.9,1.3,right,6,0.10685068651218899
p09,1,3,39,nogo,left,right,0,strong,0.498,70.205,70.2,0.2,70.45,0.016666666666666666,70.46666666666667,0.03333333333333333,70.5,0.2,70.7,1.3,right,6,0.017739827402692754
p09,1,3,40,go,right,right,1,weak,0.498,72.001,72.0,0.2,72.25,0.1,72.35,0.03333333333333333,72.38333333333334,0.11666666666666667,72.5,1.3,right,6,0.10658852157575893
p09,1,3,41,nogo,left,right,0,strong,0.712,73.921,73.8,0.2,74.05,0.016666666666666666,74.06666666666666,0.03333333333333333,74.1,0.2,74.3,1.3,right,6,0.0177503843769955
p09,1,3,42,Rest,Rest,Rest,Rest,Rest,Rest,Rest,75.6,1.8,Rest,Rest,Rest,Rest,Rest,Rest,Rest,Rest,Rest,Rest,1.8
p09,1,3,43,nogo,left,NA,1,strong,NA,NA,77.4,0.2,77.65,0.016666666666666666,77.66666666666667,0.03333333333333333,77.7,0.2,77.9,1.3,right,6,0.01764041586284293
p09,1,3,44,go,right,right,1,strong,0.409,78.952,79.2,0.2,79.45,0.016666666666666666,79.46666666666667,0.03333333333333333,79.5,0.2,79.7,1.3,right,6,0.017845983671577414
p09,1,3,1,catch,NA,right,1,catch,0.818,86.348,84.2,0.2,84.45,0.0,84.45,0.0,84.45,0.25,84.7,1.3,right,6,1.759496080921963e-05
p09,1,3,2,nogo,left,NA,1,weak,NA,NA,86.0,0.2,86.25,0.1,86.35,0.03333333333333333,86.38333333333334,0.11666666666666667,86.5,1.3,right,6,0.10599967683810974
p09,1,3,3,catch,NA,right,1,catch,0.623,89.601,87.8,0.2,88.05,0.0,88.05,0.0,88.05,0.25,88.3,1.3,right,6,1.730171061353758e-05
p09,1,3,4,nogo,left,right,0,strong,0.481,91.165,89.6,0.2,89.85,0.016666666666666666,89.86666666666666,0.03333333333333333,89.9,0.2,90.1,1.3,right,6,0.018002872086071875
p09,1,3,5,nogo,left,NA,1,strong,NA,NA,91.4,0.2,91.65,0.016666666666666666,91.66666666666667,0.03333333333333333,91.7,0.2,91.9,1.3,right,6,0.017773844327166444
p09,1,3,6,nogo,left,right,0,weak,0.285,94.472,93.2,0.2,93.45,0.1,93.55,0.03333333333333333,93.58333333333333,0.11666666666666667,93.7,1.3,right,6,0.10662986973693478
p09,1,3,7,Rest,Rest,Rest,Rest,Rest,Rest,Rest,95.0,1.8,Rest,Rest,Rest,Rest,Rest,Rest,Rest,Rest,Rest,Rest,1.8
p09,1,3,8,catch,NA,right,1,catch,0.871,98.632,96.8,0.2,97.05,0.0,97.05,0.0,97.05,0.25,97.3,1.3,right,6,1.8181461200583726e-05
p09,1,3,9,go,right,right,1,strong,0.409,99.877,98.6,0.2,98.85,0.016666666666666666,98.86666666666666,0.03333333333333333,98.9,0.2,99.1,1.3,right,6,0.017638656368944794
p09,1,3,10,nogo,left,right,0,strong,0.587,101.761,100.4,0.2,100.65,0.016666666666666666,100.66666666666667,0.03333333333333333,100.7,0.2,100.9,1.3,right,6,0.01776973883534083
p09,1,3,11,Rest,Rest,Rest,Rest,Rest,Rest,Rest,102.2,1.8,Rest,Rest,Rest,Rest,Rest,Rest,Rest,Rest,Rest,Rest,1.8
p09,1,3,12,go,right,NA,0,weak,NA,NA,104.0,0.2,104.25,0.1,104.35,0.03333333333333333,104.38333333333334,0.11666666666666667,104.5,1.3,right,6,0.10662752374264528
p09,1,3,13,go,right,right,1,strong,0.64,107.237,105.8,0.2,106.05,0.016666666666666666,106.06666666666666,0.03333333333333333,106.1,0.2,106.3,1.3,right,6,0.018520163972425507
p09,1,3,14,go,right,right,1,strong,0.534,108.837,107.6,0.2,107.85,0.016666666666666666,107.86666666666666,0.03333333333333333,107.9,0.2,108.1,1.3,right,6,0.017961523924896028
p09,1,3,15,nogo,left,right,0,strong,0.605,110.615,109.4,0.2,109.65,0.016666666666666666,109.66666666666667,0.03333333333333333,109.7,0.2,109.9,1.3,right,6,0.01778850679693278
p09,1,3,16,nogo,left,NA,1,weak,NA,NA,111.2,0.2,111.45,0.1,111.55,0.03333333333333333,111.58333333333333,0.11666666666666667,111.7,1.3,right,6,0.1067190175417636
p09,1,3,17,Rest,Rest,Rest,Rest,Rest,Rest,Rest,113.0,1.8,Rest,Rest,Rest,Rest,Rest,Rest,Rest,Rest,Rest,Rest,1.8
p09,1,3,18,go,right,right,1,weak,0.64,116.161,114.8,0.2,115.05,0.1,115.15,0.03333333333333333,115.18333333333334,0.11666666666666667,115.3,1.3,right,6,0.10665039719242486
p09,1,3,19,nogo,left,NA,1,weak,NA,NA,116.6,0.2,116.85,0.1,116.95,0.03333333333333333,116.98333333333333,0.11666666666666667,117.1,1.3,right,6,0.10665596892795293
p09,1,3,20,go,right,right,1,weak,0.64,119.752,118.4,0.2,118.65,0.1,118.75,0.03333333333333333,118.78333333333333,0.11666666666666667,118.9,1.3,right,6,0.10668588036423898
p09,1,3,21,go,right,right,1,strong,0.498,121.317,120.2,0.2,120.45,0.016666666666666666,120.46666666666667,0.03333333333333333,120.5,0.2,120.7,1.3,right,6,0.017702877976262243
p09,1,3,22,go,right,right,1,weak,0.285,122.899,122.0,0.2,122.25,0.1,122.35,0.03333333333333333,122.38333333333334,0.11666666666666667,122.5,1.3,right,6,0.1066806018789066
p09,1,3,23,go,right,right,1,weak,0.285,124.695,123.8,0.2,124.05,0.1,124.15,0.03333333333333333,124.18333333333334,0.11666666666666667,124.3,1.3,right,6,0.1066987833364692
p09,1,3,24,Rest,Rest,Rest,Rest,Rest,Rest,Rest,125.6,3.6,Rest,Rest,Rest,Rest,Rest,Rest,Rest,Rest,Rest,Rest,3.6
p09,1,3,25,go,right,right,1,weak,0.303,130.348,129.2,0.2,129.45,0.1,129.55,0.03333333333333333,129.58333333333334,0.11666666666666667,129.7,1.3,right,6,0.10667532338993624
p09,1,3,26,go,right,right,1,weak,0.303,132.144,131.0,0.2,131.25,0.1,131.35,0.03333333333333333,131.38333333333333,0.11666666666666667,131.5,1.3,right,6,0.10662488449452212
p09,1,3,27,Rest,Rest,Rest,Rest,Rest,Rest,Rest,132.8,1.8,Rest,Rest,Rest,Rest,Rest,Rest,Rest,Rest,Rest,Rest,1.8
p09,1,3,28,nogo,left,NA,1,weak,NA,NA,134.6,0.2,134.85,0.1,134.95,0.03333333333333333,134.98333333333332,0.11666666666666667,135.1,1.3,right,6,0.10649849402034306
p09,1,3,29,nogo,left,right,0,strong,0.587,137.85,136.4,0.2,136.65,0.016666666666666666,136.66666666666666,0.03333333333333333,136.7,0.2,136.9,1.3,right,6,0.017732202915794915
p09,1,3,30,catch,NA,right,1,catch,0.854,139.771,138.2,0.2,138.45,0.0,138.45,0.0,138.45,0.25,138.7,1.3,right,6,1.7594964447198436e-05
p09,1,3,31,go,right,right,1,weak,0.338,141.05,140.0,0.2,140.25,0.1,140.35,0.03333333333333333,140.38333333333333,0.11666666666666667,140.5,1.3,right,6,0.10673778550335555
p09,1,3,32,Rest,Rest,Rest,Rest,Rest,Rest,Rest,141.8,1.8,Rest,Rest,Rest,Rest,Rest,Rest,Rest,Rest,Rest,Rest,1.8
p09,1,3,33,go,right,right,1,strong,0.783,145.122,143.6,0.2,143.85,0.016666666666666666,143.86666666666667,0.03333333333333333,143.9,0.2,144.1,1.3,right,6,0.017870323368697427
p09,1,3,34,nogo,left,NA,1,weak,NA,NA,145.4,0.2,145.65,0.1,145.75,0.03333333333333333,145.78333333333333,0.11666666666666667,145.9,1.3,right,6,0.10666212716387236
p09,1,3,35,nogo,left,right,0,weak,0.729,148.659,147.2,0.2,147.45,0.1,147.55,0.03333333333333333,147.58333333333334,0.11666666666666667,147.7,1.3,right,6,0.1066204857561388
p09,1,3,36,go,right,right,1,strong,0.658,150.295,149.0,0.2,149.25,0.016666666666666666,149.26666666666668,0.03333333333333333,149.3,0.2,149.5,1.3,right,6,0.017774137573724147
p09,1,3,37,go,right,right,1,strong,0.409,151.753,150.8,0.2,151.05,0.016666666666666666,151.06666666666666,0.03333333333333333,151.1,0.2,151.3,1.3,right,6,0.01780756800508243
p09,1,3,38,nogo,left,right,0,strong,0.712,153.762,152.6,0.2,152.85,0.016666666666666666,152.86666666666667,0.03333333333333333,152.9,0.2,153.1,1.3,right,6,0.017794371782656526
p09,1,3,39,nogo,left,right,0,strong,0.392,155.149,154.4,0.2,154.65,0.016666666666666666,154.66666666666666,0.03333333333333333,154.7,0.2,154.9,1.3,right,6,0.017818418229580857
p09,1,3,40,Rest,Rest,Rest,Rest,Rest,Rest,Rest,156.2,1.8,Rest,Rest,Rest,Rest,Rest,Rest,Rest,Rest,Rest,Rest,1.8
p09,1,3,41,nogo,left,NA,1,weak,NA,NA,158.0,0.2,158.25,0.1,158.35,0.03333333333333333,158.38333333333333,0.11666666666666667,158.5,1.3,right,6,0.10671813779845252
p09,1,3,42,Rest,Rest,Rest,Rest,Rest,Rest,Rest,159.8,1.8,Rest,Rest,Rest,Rest,Rest,Rest,Rest,Rest,Rest,Rest,1.8
p09,1,3,43,go,right,right,1,strong,0.48,162.58,161.6,0.2,161.85,0.016666666666666666,161.86666666666667,0.03333333333333333,161.9,0.2,162.1,1.3,right,6,0.017781468810426304
p09,1,3,44,nogo,left,right,0,strong,0.409,164.215,163.4,0.2,163.65,0.016666666666666666,163.66666666666666,0.03333333333333333,163.7,0.2,163.9,1.3,right,6,0.01782516296589165
p09,1,3,1,nogo,left,NA,1,weak,NA,NA,167.4,0.2,167.65,0.1,167.75,0.03333333333333333,167.78333333333333,0.11666666666666667,167.9,1.3,right,6,0.10664218620877364
p09,1,3,2,nogo,left,right,0,strong,0.552,172.126,169.2,0.2,169.45,0.016666666666666666,169.46666666666667,0.03333333333333333,169.5,0.2,169.7,1.3,right,6,0.01785683389607584
p09,1,3,3,Rest,Rest,Rest,Rest,Rest,Rest,Rest,171.0,1.8,Rest,Rest,Rest,Rest,Rest,Rest,Rest,Rest,Rest,Rest,1.8
p09,1,3,4,catch,NA,right,1,catch,0.445,175.593,172.8,0.2,173.05,0.0,173.05,0.0,173.05,0.25,173.3,1.3,right,6,1.7008464055834338e-05
p09,1,3,5,go,right,right,1,strong,0.481,177.335,174.6,0.2,174.85,0.016666666666666666,174.86666666666667,0.03333333333333333,174.9,0.2,175.1,1.3,right,6,0.017829268457717262
p09,1,3,6,go,right,right,1,strong,0.552,179.113,176.4,0.2,176.65,0.016666666666666666,176.66666666666666,0.03333333333333333,176.7,0.2,176.9,1.3,right,6,0.01775331687167636
p09,1,3,7,Rest,Rest,Rest,Rest,Rest,Rest,Rest,178.2,1.8,Rest,Rest,Rest,Rest,Rest,Rest,Rest,Rest,Rest,Rest,1.8
p09,1,3,8,go,right,right,1,strong,0.8,182.989,180.0,0.2,180.25,0.016666666666666666,180.26666666666668,0.03333333333333333,180.3,0.2,180.5,1.3,right,6,0.01801988054648973
p09,1,3,9,nogo,left,right,0,strong,1.103,184.998,181.8,0.2,182.05,0.016666666666666666,182.06666666666666,0.03333333333333333,182.1,0.2,182.3,1.3,right,6,0.021186680496612098
p09,1,3,10,go,right,right,1,weak,0.427,186.118,183.6,0.2,183.85,0.1,183.95,0.03333333333333333,183.98333333333332,0.11666666666666667,184.1,1.3,right,6,0.10668939935931121
p09,1,3,11,nogo,left,right,0,strong,0.498,187.896,185.4,0.2,185.65,0.016666666666666666,185.66666666666666,0.03333333333333333,185.7,0.2,185.9,1.3,right,6,0.017789386540243868
p09,1,3,12,nogo,left,right,0,strong,0.32,189.424,187.2,0.2,187.45,0.016666666666666666,187.46666666666667,0.03333333333333333,187.5,0.2,187.7,1.3,right,6,0.017939823468623217
p09,1,3,13,nogo,left,right,0,weak,0.32,191.22,189.0,0.2,189.25,0.1,189.35,0.03333333333333333,189.38333333333333,0.11666666666666667,189.5,1.3,right,6,0.10640817321109353
p09,1,3,14,Rest,Rest,Rest,Rest,Rest,Rest,Rest,190.8,1.8,Rest,Rest,Rest,Rest,Rest,Rest,Rest,Rest,Rest,Rest,1.8
p09,1,3,15,nogo,left,NA,1,weak,NA,NA,192.6,0.2,192.85,0.1,192.95,0.03333333333333333,192.98333333333332,0.11666666666666667,193.1,1.3,right,6,0.1067187242952059
p09,1,3,16,go,right,right,1,strong,0.943,197.265,194.4,0.2,194.65,0.016666666666666666,194.66666666666666,0.03333333333333333,194.7,0.2,194.9,1.3,right,6,0.01776446034637047
p09,1,3,17,nogo,left,right,0,weak,0.373,198.491,196.2,0.2,196.45,0.1,196.55,0.03333333333333333,196.58333333333334,0.11666666666666667,196.7,1.3,right,6,0.10674013149764505
p09,1,3,18,nogo,left,NA,1,strong,NA,NA,198.0,0.2,198.25,0.016666666666666666,198.26666666666668,0.03333333333333333,198.3,0.2,198.5,1.3,right,6,0.018138353290851228
p09,1,3,19,go,right,right,1,weak,0.854,202.473,199.8,0.2,200.05,0.1,200.15,0.03333333333333333,200.18333333333334,0.11666666666666667,200.3,1.3,right,6,0.1066674056564807
p09,1,3,20,nogo,left,NA,1,weak,NA,NA,201.6,0.2,201.85,0.1,201.95,0.03333333333333333,201.98333333333332,0.11666666666666667,202.1,1.3,right,6,0.10674042474784073
p09,1,3,21,go,right,right,1,strong,0.8,205.922,203.4,0.2,203.65,0.016666666666666666,203.66666666666666,0.03333333333333333,203.7,0.2,203.9,1.3,right,6,0.017780295813281555
p09,1,3,22,go,right,NA,0,weak,NA,NA,205.2,0.2,205.45,0.1,205.55,0.03333333333333333,205.58333333333334,0.11666666666666667,205.7,1.3,right,6,0.1066518634397653
p09,1,3,23,go,right,right,1,strong,0.729,209.354,207.0,0.2,207.25,0.016666666666666666,207.26666666666668,0.03333333333333333,207.3,0.2,207.5,1.3,right,6,0.017858886643807637
p09,1,3,24,go,right,right,1,weak,0.73,211.149,208.8,0.2,209.05,0.1,209.15,0.03333333333333333,209.18333333333334,0.11666666666666667,209.3,1.3,right,6,0.10652342021421646
p09,1,3,25,nogo,left,NA,1,strong,NA,NA,210.6,0.2,210.85,0.016666666666666666,210.86666666666667,0.03333333333333333,210.9,0.2,211.1,1.3,right,6,0.01780492876059725
p09,1,3,26,nogo,left,NA,1,weak,NA,NA,212.4,0.2,212.65,0.1,212.75,0.03333333333333333,212.78333333333333,0.11666666666666667,212.9,1.3,right,6,0.106821654822852
p09,1,3,27,catch,NA,right,1,catch,0.623,216.198,214.2,0.2,214.45,0.0,214.45,0.0,214.45,0.25,214.7,1.3,right,6,1.7301714251516387e-05
p09,1,3,28,nogo,left,NA,1,weak,NA,NA,216.0,0.2,216.25,0.1,216.35,0.03333333333333333,216.38333333333333,0.11666666666666667,216.5,1.3,right,6,0.10664599845040357
p09,1,3,29,nogo,left,right,0,strong,0.676,219.754,217.8,0.2,218.05,0.016666666666666666,218.06666666666666,0.03333333333333333,218.1,0.2,218.3,1.3,right,6,0.017796717776946025
p09,1,3,30,catch,NA,right,1,catch,0.463,221.194,219.6,0.2,219.85,0.0,219.85,0.0,219.85,0.25,220.1,1.3,right,6,1.759496080921963e-05
p09,1,3,31,go,right,right,1,weak,0.445,222.971,221.4,0.2,221.65,0.1,221.75,0.03333333333333333,221.78333333333333,0.11666666666666667,221.9,1.3,right,6,0.10674599648700678
p09,1,3,32,Rest,Rest,Rest,Rest,Rest,Rest,Rest,223.2,1.8,Rest,Rest,Rest,Rest,Rest,Rest,Rest,Rest,Rest,Rest,1.8
p09,1,3,33,nogo,left,NA,1,strong,NA,NA,225.0,0.2,225.25,0.016666666666666666,225.26666666666668,0.03333333333333333,225.3,0.2,225.5,1.3,right,6,0.01795301969104912
p09,1,3,34,Rest,Rest,Rest,Rest,Rest,Rest,Rest,226.8,1.8,Rest,Rest,Rest,Rest,Rest,Rest,Rest,Rest,Rest,Rest,1.8
p09,1,3,35,go,right,right,1,weak,0.409,230.278,228.6,0.2,228.85,0.1,228.95,0.03333333333333333,228.98333333333332,0.11666666666666667,229.1,1.3,right,6,0.10685068651218899
p09,1,3,36,go,right,right,1,strong,0.551,232.127,230.4,0.2,230.65,0.016666666666666666,230.66666666666666,0.03333333333333333,230.7,0.2,230.9,1.3,right,6,0.017645401101617608
p09,1,3,37,go,right,right,1,weak,1.103,234.474,232.2,0.2,232.45,0.1,232.55,0.03333333333333333,232.58333333333334,0.11666666666666667,232.7,1.3,right,6,0.10664570520384586
p09,1,3,38,Rest,Rest,Rest,Rest,Rest,Rest,Rest,234.0,1.8,Rest,Rest,Rest,Rest,Rest,Rest,Rest,Rest,Rest,Rest,1.8
p09,1,3,39,go,right,right,1,strong,0.498,237.496,235.8,0.2,236.05,0.016666666666666666,236.06666666666666,0.03333333333333333,236.1,0.2,236.3,1.3,right,6,0.01782252372140647
p09,1,3,40,go,right,right,1,weak,0.356,239.15,237.6,0.2,237.85,0.1,237.95,0.03333333333333333,237.98333333333332,0.11666666666666667,238.1,1.3,right,6,0.10670670106992475
p09,1,3,41,Rest,Rest,Rest,Rest,Rest,Rest,Rest,239.4,5.4,Rest,Rest,Rest,Rest,Rest,Rest,Rest,Rest,Rest,Rest,5.4
p09,1,3,42,nogo,left,NA,1,weak,NA,NA,244.8,0.2,245.05,0.1,245.15,0.03333333333333333,245.18333333333334,0.11666666666666667,245.3,1.3,right,6,0.10669233185399207
p09,1,3,43,catch,NA,right,1,catch,0.481,248.483,246.6,0.2,246.85,0.0,246.85,0.0,246.85,0.25,247.1,1.3,right,6,1.759496080921963e-05
p09,1,3,1,go,right,right,1,weak,0.676,256.874,252.6,0.2,252.85,0.1,252.95,0.03333333333333333,252.98333333333332,0.11666666666666667,253.1,1.3,right,6,0.10674834248129628
p09,1,3,2,nogo,left,right,0,strong,0.569,258.474,254.4,0.2,254.65,0.016666666666666666,254.66666666666666,0.03333333333333333,254.7,0.2,254.9,1.3,right,6,0.017859473140561022
p09,1,3,3,Rest,Rest,Rest,Rest,Rest,Rest,Rest,256.2,1.8,Rest,Rest,Rest,Rest,Rest,Rest,Rest,Rest,Rest,Rest,1.8
p09,1,3,4,nogo,left,NA,1,weak,NA,NA,258.0,0.2,258.25,0.1,258.35,0.03333333333333333,258.3833333333333,0.11666666666666667,258.5,1.3,right,6,0.10666593940550229
p09,1,3,5,go,right,right,1,weak,0.48,263.896,259.8,0.2,260.05,0.1,260.15,0.03333333333333333,260.18333333333334,0.11666666666666667,260.3,1.3,right,6,0.10675098172578146
p09,1,3,6,go,right,right,1,strong,0.587,265.71,261.6,0.2,261.85,0.016666666666666666,261.8666666666667,0.03333333333333333,261.9,0.2,262.1,1.3,right,6,0.017840998432802735
p09,1,3,7,nogo,left,right,0,strong,0.694,267.523,263.4,0.2,263.65,0.016666666666666666,263.6666666666667,0.03333333333333333,263.7,0.2,263.9,1.3,right,6,0.014526107548590517
p09,1,3,8,go,right,right,1,strong,0.427,268.963,265.2,0.2,265.45,0.016666666666666666,265.46666666666664,0.03333333333333333,265.5,0.2,265.7,1.3,right,6,0.014780354755203007
p09,1,3,9,go,right,right,1,weak,0.374,270.705,267.0,0.2,267.25,0.1,267.35,0.03333333333333333,267.3833333333333,0.11666666666666667,267.5,1.3,right,6,0.10662547099491348
p09,1,3,10,go,right,right,1,weak,0.356,272.484,268.8,0.2,269.05,0.1,269.15,0.03333333333333333,269.18333333333334,0.11666666666666667,269.3,1.3,right,6,0.10669878334010718
p09,1,3,11,nogo,left,NA,1,weak,NA,NA,270.6,0.2,270.85,0.1,270.95,0.03333333333333333,270.98333333333335,0.11666666666666667,271.1,1.3,right,6,0.10661022202839376
p09,1,3,12,nogo,left,NA,1,strong,NA,NA,272.4,0.2,272.65,0.016666666666666666,272.6666666666667,0.03333333333333333,272.7,0.2,272.9,1.3,right,6,0.017799063771235524
p09,1,3,13,nogo,left,right,0,weak,0.534,277.959,274.2,0.2,274.45,0.1,274.55,0.03333333333333333,274.5833333333333,0.11666666666666667,274.7,1.3,right,6,0.10667503013610258
p09,1,3,14,go,right,right,1,strong,0.374,279.506,276.0,0.2,276.25,0.016666666666666666,276.26666666666665,0.03333333333333333,276.3,0.2,276.5,1.3,right,6,0.017784401301469188
p09,1,3,15,nogo,left,NA,1,strong,NA,NA,277.8,0.2,278.05,0.016666666666666666,278.06666666666666,0.03333333333333333,278.1,0.2,278.3,1.3,right,6,0.017779416066332487
p09,1,3,16,go,right,right,1,strong,0.498,283.043,279.6,0.2,279.85,0.016666666666666666,279.8666666666667,0.03333333333333333,279.9,0.2,280.1,1.3,right,6,0.01789202382133226
p09,1,3,17,go,right,right,1,strong,0.48,284.732,281.4,0.2,281.65,0.016666666666666666,281.6666666666667,0.03333333333333333,281.7,0.2,281.9,1.3,right,6,0.01775185062433593
p09,1,3,18,go,right,right,1,strong,0.356,286.315,283.2,0.2,283.45,0.016666666666666666,283.46666666666664,0.03333333333333333,283.5,0.2,283.7,1.3,right,6,0.017794078532460844
p09,1,3,19,catch,NA,right,1,catch,0.551,288.163,285.0,0.2,285.25,0.0,285.25,0.0,285.25,0.25,285.5,1.3,right,6,1.7008464055834338e-05
p09,1,3,20,go,right,right,1,weak,0.249,289.657,286.8,0.2,287.05,0.1,287.15,0.03333333333333333,287.18333333333334,0.11666666666666667,287.3,1.3,right,6,0.10676183195391786
p09,1,3,21,nogo,left,right,0,strong,0.712,291.826,288.6,0.2,288.85,0.016666666666666666,288.8666666666667,0.03333333333333333,288.9,0.2,289.1,1.3,right,6,0.017736015157424845
p09,1,3,22,Rest,Rest,Rest,Rest,Rest,Rest,Rest,290.4,3.6,Rest,Rest,Rest,Rest,Rest,Rest,Rest,Rest,Rest,Rest,3.6
p09,1,3,23,nogo,left,right,0,strong,0.356,297.017,294.0,0.2,294.25,0.016666666666666666,294.26666666666665,0.03333333333333333,294.3,0.2,294.5,1.3,right,6,0.017842464680143166
p09,1,3,24,Rest,Rest,Rest,Rest,Rest,Rest,Rest,295.8,1.8,Rest,Rest,Rest,Rest,Rest,Rest,Rest,Rest,Rest,Rest,1.8
p09,1,3,25,go,right,right,1,strong,0.534,300.821,297.6,0.2,297.85,0.016666666666666666,297.8666666666667,0.03333333333333333,297.9,0.2,298.1,1.3,right,6,0.017751557374140248
p09,1,3,26,Rest,Rest,Rest,Rest,Rest,Rest,Rest,299.4,1.8,Rest,Rest,Rest,Rest,Rest,Rest,Rest,Rest,Rest,Rest,1.8
p09,1,3,27,nogo,left,NA,1,weak,NA,NA,301.2,0.2,301.45,0.1,301.55,0.03333333333333333,301.5833333333333,0.11666666666666667,301.7,1.3,right,6,0.10669027910626028
p09,1,3,28,nogo,left,right,0,strong,0.623,306.332,303.0,0.2,303.25,0.016666666666666666,303.26666666666665,0.03333333333333333,303.3,0.2,303.5,1.3,right,6,0.017816658732044743
p09,1,3,29,Rest,Rest,Rest,Rest,Rest,Rest,Rest,304.8,1.8,Rest,Rest,Rest,Rest,Rest,Rest,Rest,Rest,Rest,Rest,1.8
p09,1,3,30,go,right,right,1,weak,0.249,309.675,306.6,0.2,306.85,0.1,306.95,0.03333333333333333,306.98333333333335,0.11666666666666667,307.1,1.3,right,6,0.10671373905279324
p09,1,3,31,nogo,left,NA,1,weak,NA,NA,308.4,0.2,308.65,0.1,308.75,0.03333333333333333,308.78333333333336,0.11666666666666667,308.9,1.3,right,6,0.10660465028922772
p09,1,3,32,nogo,left,right,0,weak,0.427,313.444,310.2,0.2,310.45,0.1,310.55,0.03333333333333333,310.5833333333333,0.11666666666666667,310.7,1.3,right,6,0.10668177487605135
p09,1,3,33,Rest,Rest,Rest,Rest,Rest,Rest,Rest,312.0,1.8,Rest,Rest,Rest,Rest,Rest,Rest,Rest,Rest,Rest,Rest,1.8
p09,1,3,34,go,right,right,1,weak,0.587,317.319,313.8,0.2,314.05,0.1,314.15,0.03333333333333333,314.18333333333334,0.11666666666666667,314.3,1.3,right,6,0.1064377913971839
p09,1,3,35,catch,NA,right,1,catch,0.765,319.151,315.6,0.2,315.85,0.0,315.85,0.0,315.85,0.25,316.1,1.3,right,6,1.7301714251516387e-05
p09,1,3,36,Rest,Rest,Rest,Rest,Rest,Rest,Rest,317.4,1.8,Rest,Rest,Rest,Rest,Rest,Rest,Rest,Rest,Rest,Rest,1.8
p09,1,3,37,catch,NA,right,1,catch,0.498,322.457,319.2,0.2,319.45,0.0,319.45,0.0,319.45,0.25,319.7,1.3,right,6,1.7888211004901677e-05
p09,1,3,38,nogo,left,right,0,strong,0.445,324.111,321.0,0.2,321.25,0.016666666666666666,321.26666666666665,0.03333333333333333,321.3,0.2,321.5,1.3,right,6,0.017819591226725606
p09,1,3,39,nogo,left,right,0,weak,0.32,325.782,322.8,0.2,323.05,0.1,323.15,0.03333333333333333,323.18333333333334,0.11666666666666667,323.3,1.3,right,6,0.10645362686409499
p09,1,3,40,nogo,left,NA,1,weak,NA,NA,324.6,0.2,324.85,0.1,324.95,0.03333333333333333,324.98333333333335,0.11666666666666667,325.1,1.3,right,6,0.10669585084542632
p09,1,3,41,go,right,right,1,strong,0.498,329.462,326.4,0.2,326.65,0.016666666666666666,326.6666666666667,0.03333333333333333,326.7,0.2,326.9,1.3,right,6,0.017848916166258277
p09,1,3,42,catch,NA,right,1,catch,0.463,331.079,328.2,0.2,328.45,0.0,328.45,0.0,328.45,0.25,328.7,1.3,right,6,1.759496080921963e-05
p09,1,3,43,go,right,right,1,weak,0.445,332.857,330.0,0.2,330.25,0.1,330.35,0.03333333333333333,330.3833333333333,0.11666666666666667,330.5,1.3,right,6,0.10676711043925025
p09,1,3,44,Rest,Rest,Rest,Rest,Rest,Rest,Rest,331.8,1.8,Rest,Rest,Rest,Rest,Rest,Rest,Rest,Rest,Rest,Rest,1.8
