subid,session,run,trial,trial_type,side,response,correct,strength,response_time,cumulative_response_time,fixation_onset,fixation_dur,stim_onset,stim_dur,blank_onset,blank_dur,mask_onset,mask_dur,response_onset,response_dur,go_side,Staircase_stimulus,Presentation Duration
test_short_jitter,2,1,1,go,left,NA,0,strong,NA,NA,0.0,0.2,0.25,0.016666666666666666,0.26666666666666666,0.03333333333333333,0.3,0.2,0.5,1.6666666666666667,left,12,0.016528899897821248
test_short_jitter,2,1,2,go,left,NA,0,weak,NA,NA,2.1666666666666665,0.2,2.4166666666666665,0.2,2.6166666666666667,0.03333333333333333,2.65,0.016666666666666666,2.6666666666666665,1.3,left,12,0.20044190005864948
test_short_jitter,2,1,3,nogo,right,NA,1,weak,NA,NA,3.966666666666667,0.2,4.216666666666667,0.2,4.416666666666667,0.03333333333333333,4.45,0.016666666666666666,4.466666666666667,1.6333333333333333,left,12,0.1991171999834478
test_short_jitter,2,1,4,nogo,right,left,0,strong,1.467,7.713,6.1,0.2,6.35,0.016666666666666666,6.366666666666666,0.03333333333333333,6.4,0.2,6.6,1.4666666666666666,left,12,0.017177400062792003
test_short_jitter,2,1,5,catch,NA,left,1,catch,0.684,8.646,8.066666666666666,0.2,8.316666666666666,0.0,8.316666666666666,0.0,8.316666666666666,0.25,8.566666666666666,1.6333333333333333,left,12,3.100000321865082e-05
test_short_jitter,2,1,6,go,left,left,1,strong,0.433,10.328,10.2,0.2,10.45,0.016666666666666666,10.466666666666667,0.03333333333333333,10.5,0.2,10.7,1.5666666666666667,left,12,0.016679600114002824
test_short_jitter,2,1,7,Rest,Rest,Rest,Rest,Rest,Rest,Rest,12.266666666666667,2.0,Rest,Rest,Rest,Rest,Rest,Rest,Rest,Rest,Rest,Rest,2.0
test_short_jitter,2,1,8,catch,NA,left,1,catch,0.533,14.244,14.266666666666667,0.2,14.516666666666667,0.0,14.516666666666667,0.0,14.516666666666667,0.25,14.766666666666667,1.4333333333333333,left,12,1.3899989426136017e-05
test_short_jitter,2,1,9,nogo,right,left,0,strong,0.45,15.894,16.2,0.2,16.45,0.016666666666666666,16.466666666666665,0.03333333333333333,16.5,0.2,16.7,1.7,left,12,0.016253600013442338
test_short_jitter,2,1,10,Rest,Rest,Rest,Rest,Rest,Rest,Rest,18.4,2.0,Rest,Rest,Rest,Rest,Rest,Rest,Rest,Rest,Rest,Rest,2.0
test_short_jitter,2,1,11,go,left,left,1,weak,0.183,19.809,20.4,0.2,20.65,0.2,20.85,0.03333333333333333,20.883333333333333,0.016666666666666666,20.9,1.3,left,12,0.199660399928689
test_short_jitter,2,1,12,nogo,right,left,0,strong,0.617,21.842,22.2,0.2,22.45,0.016666666666666666,22.466666666666665,0.03333333333333333,22.5,0.2,22.7,1.6666666666666667,left,12,0.016627000062726438
test_short_jitter,2,1,13,go,left,left,1,strong,0.533,23.725,24.366666666666667,0.2,24.616666666666667,0.016666666666666666,24.633333333333333,0.03333333333333333,24.666666666666668,0.2,24.866666666666667,1.4666666666666666,left,12,0.01665490004234016
test_short_jitter,2,1,14,go,left,left,1,strong,0.567,25.525,26.333333333333332,0.2,26.583333333333332,0.016666666666666666,26.6,0.03333333333333333,26.633333333333333,0.2,26.833333333333332,1.6333333333333333,left,12,0.016691300086677074
test_short_jitter,2,1,15,nogo,right,NA,1,weak,NA,NA,28.466666666666665,0.2,28.716666666666665,0.2,28.916666666666668,0.03333333333333333,28.95,0.016666666666666666,28.966666666666665,1.3666666666666667,left,12,0.19926080002915114
test_short_jitter,2,1,16,go,left,left,1,strong,0.499,29.24,30.333333333333332,0.2,30.583333333333332,0.016666666666666666,30.6,0.03333333333333333,30.633333333333333,0.2,30.833333333333332,1.6,left,12,0.016907099983654916
test_short_jitter,2,1,17,catch,NA,left,1,catch,0.616,31.207,32.43333333333333,0.2,32.68333333333333,0.0,32.68333333333333,0.0,32.68333333333333,0.25,32.93333333333333,1.3333333333333333,left,12,2.219993621110916e-05
test_short_jitter,2,1,18,Rest,Rest,Rest,Rest,Rest,Rest,Rest,34.266666666666666,2.0,Rest,Rest,Rest,Rest,Rest,Rest,Rest,Rest,Rest,Rest,2.0
test_short_jitter,2,1,19,go,left,left,1,weak,0.633,35.039,36.266666666666666,0.2,36.516666666666666,0.2,36.71666666666667,0.03333333333333333,36.75,0.016666666666666666,36.766666666666666,1.3,left,12,0.20030869997572154
test_short_jitter,2,1,20,go,left,left,1,weak,0.468,36.656,38.06666666666667,0.2,38.31666666666667,0.2,38.516666666666666,0.03333333333333333,38.55,0.016666666666666666,38.56666666666667,1.6333333333333333,left,12,0.19909239991102368
test_short_jitter,2,1,21,go,left,left,1,strong,0.601,38.722,40.2,0.2,40.45,0.016666666666666666,40.46666666666667,0.03333333333333333,40.5,0.2,40.7,1.5666666666666667,left,12,0.017127100029028952
test_short_jitter,2,1,22,go,left,left,1,weak,0.517,40.689,42.266666666666666,0.2,42.516666666666666,0.2,42.71666666666667,0.03333333333333333,42.75,0.016666666666666666,42.766666666666666,1.5333333333333334,left,12,0.2001594000030309
test_short_jitter,2,1,23,nogo,right,NA,1,weak,NA,NA,44.3,0.2,44.55,0.2,44.75,0.03333333333333333,44.78333333333333,0.016666666666666666,44.8,1.5666666666666667,left,12,0.20046199997887015
test_short_jitter,2,1,24,catch,NA,left,1,catch,0.484,44.488,46.36666666666667,0.2,46.61666666666667,0.0,46.61666666666667,0.0,46.61666666666667,0.25,46.86666666666667,1.4,left,12,1.4499993994832039e-05
test_short_jitter,2,1,25,Rest,Rest,Rest,Rest,Rest,Rest,Rest,48.266666666666666,4.0,Rest,Rest,Rest,Rest,Rest,Rest,Rest,Rest,Rest,Rest,4.0
test_short_jitter,2,1,26,nogo,right,left,0,strong,0.434,50.136,52.266666666666666,0.2,52.516666666666666,0.016666666666666666,52.53333333333333,0.03333333333333333,52.56666666666667,0.2,52.766666666666666,1.3333333333333333,left,12,0.015760399983264506
test_short_jitter,2,1,27,nogo,right,NA,1,weak,NA,NA,54.1,0.2,54.35,0.2,54.55,0.03333333333333333,54.583333333333336,0.016666666666666666,54.6,1.6666666666666667,left,12,0.2000758999492973
test_short_jitter,2,1,28,Rest,Rest,Rest,Rest,Rest,Rest,Rest,56.266666666666666,2.0,Rest,Rest,Rest,Rest,Rest,Rest,Rest,Rest,Rest,Rest,2.0
test_short_jitter,2,1,29,go,left,NA,0,strong,NA,NA,58.266666666666666,0.2,58.516666666666666,0.016666666666666666,58.53333333333333,0.03333333333333333,58.56666666666667,0.2,58.766666666666666,1.6,left,12,0.016581599949859083
test_short_jitter,2,1,30,Rest,Rest,Rest,Rest,Rest,Rest,Rest,60.36666666666667,2.0,Rest,Rest,Rest,Rest,Rest,Rest,Rest,Rest,Rest,Rest,2.0
test_short_jitter,2,1,31,go,left,NA,0,weak,NA,NA,62.36666666666667,0.2,62.61666666666667,0.2,62.81666666666667,0.03333333333333333,62.85,0.016666666666666666,62.86666666666667,1.5333333333333334,left,12,0.1996607999317348
test_short_jitter,2,1,32,Rest,Rest,Rest,Rest,Rest,Rest,Rest,64.4,2.0,Rest,Rest,Rest,Rest,Rest,Rest,Rest,Rest,Rest,Rest,2.0
test_short_jitter,2,1,33,nogo,right,NA,1,weak,NA,NA,66.4,0.2,66.65,0.2,66.85,0.03333333333333333,66.88333333333334,0.016666666666666666,66.9,1.3333333333333333,left,12,0.20019659993704408
test_short_jitter,2,1,34,nogo,right,NA,1,weak,NA,NA,68.23333333333333,0.2,68.48333333333333,0.2,68.68333333333334,0.03333333333333333,68.71666666666667,0.016666666666666666,68.73333333333333,1.6666666666666667,left,12,0.20750000001862645
test_short_jitter,2,1,35,Rest,Rest,Rest,Rest,Rest,Rest,Rest,70.4,2.0,Rest,Rest,Rest,Rest,Rest,Rest,Rest,Rest,Rest,Rest,2.0
test_short_jitter,2,1,36,nogo,right,NA,1,strong,NA,NA,72.4,0.2,72.65,0.016666666666666666,72.66666666666667,0.03333333333333333,72.7,0.2,72.9,1.3666666666666667,left,12,0.017480500042438507
test_short_jitter,2,1,37,go,left,NA,0,weak,NA,NA,74.26666666666667,0.2,74.51666666666667,0.2,74.71666666666667,0.03333333333333333,74.75,0.016666666666666666,74.76666666666667,1.3,left,12,0.1999620000133291
test_short_jitter,2,1,38,nogo,right,NA,1,strong,NA,NA,76.06666666666666,0.2,76.31666666666666,0.016666666666666666,76.33333333333333,0.03333333333333333,76.36666666666666,0.2,76.56666666666666,1.6666666666666667,left,12,0.01689339999575168
test_short_jitter,2,1,39,nogo,right,NA,1,strong,NA,NA,78.23333333333333,0.2,78.48333333333333,0.016666666666666666,78.5,0.03333333333333333,78.53333333333333,0.2,78.73333333333333,1.3,left,12,0.016634800005704165
test_short_jitter,2,1,40,Rest,Rest,Rest,Rest,Rest,Rest,Rest,80.03333333333333,2.0,Rest,Rest,Rest,Rest,Rest,Rest,Rest,Rest,Rest,Rest,2.0
test_short_jitter,2,1,41,nogo,right,NA,1,strong,NA,NA,82.03333333333333,0.2,82.28333333333333,0.016666666666666666,82.3,0.03333333333333333,82.33333333333333,0.2,82.53333333333333,1.5666666666666667,left,12,0.017005400033667684
test_short_jitter,2,1,42,nogo,right,NA,1,weak,NA,NA,84.1,0.2,84.35,0.2,84.55,0.03333333333333333,84.58333333333333,0.016666666666666666,84.6,1.3666666666666667,left,12,0.19960859999991953
test_short_jitter,2,1,43,nogo,right,NA,1,weak,NA,NA,85.96666666666667,0.2,86.21666666666667,0.2,86.41666666666667,0.03333333333333333,86.45,0.016666666666666666,86.46666666666667,1.5666666666666667,left,12,0.20008730003610253
test_short_jitter,2,1,44,go,left,NA,0,weak,NA,NA,88.03333333333333,0.2,88.28333333333333,0.2,88.48333333333333,0.03333333333333333,88.51666666666667,0.016666666666666666,88.53333333333333,1.5666666666666667,left,12,0.19950909994076937
test_short_jitter,2,1,45,go,left,NA,0,strong,NA,NA,90.1,0.2,90.35,0.016666666666666666,90.36666666666666,0.03333333333333333,90.4,0.2,90.6,1.4,left,12,0.017767000012099743
test_short_jitter,2,1,1,go,left,NA,0,weak,NA,NA,95.3,0.2,95.55,0.2,95.75,0.03333333333333333,95.78333333333333,0.016666666666666666,95.8,1.3333333333333333,left,12,0.2001655000494793
test_short_jitter,2,1,2,go,left,NA,0,strong,NA,NA,97.13333333333334,0.2,97.38333333333334,0.016666666666666666,97.4,0.03333333333333333,97.43333333333334,0.2,97.63333333333334,1.6666666666666667,left,12,0.01760599995031953
test_short_jitter,2,1,3,nogo,right,NA,1,weak,NA,NA,99.3,0.2,99.55,0.2,99.75,0.03333333333333333,99.78333333333333,0.016666666666666666,99.8,1.3,left,12,0.19809970003552735
test_short_jitter,2,1,4,catch,NA,NA,0,catch,NA,NA,101.1,0.2,101.35,0.0,101.35,0.0,101.35,0.25,101.6,1.5666666666666667,left,12,1.7400016076862812e-05
test_short_jitter,2,1,5,nogo,right,NA,1,strong,NA,NA,103.16666666666667,0.2,103.41666666666667,0.016666666666666666,103.43333333333334,0.03333333333333333,103.46666666666667,0.2,103.66666666666667,1.4,left,12,0.01735880004707724
test_short_jitter,2,1,6,Rest,Rest,Rest,Rest,Rest,Rest,Rest,105.06666666666666,2.0,Rest,Rest,Rest,Rest,Rest,Rest,Rest,Rest,Rest,Rest,2.0
test_short_jitter,2,1,7,nogo,right,NA,1,weak,NA,NA,107.06666666666666,0.2,107.31666666666666,0.2,107.51666666666667,0.03333333333333333,107.55,0.016666666666666666,107.56666666666666,1.6666666666666667,left,12,0.1995388000505045
test_short_jitter,2,1,8,go,left,NA,0,strong,NA,NA,109.23333333333333,0.2,109.48333333333333,0.016666666666666666,109.5,0.03333333333333333,109.53333333333333,0.2,109.73333333333333,1.3333333333333333,left,12,0.01588880002964288
test_short_jitter,2,1,9,go,left,NA,0,strong,NA,NA,111.06666666666666,0.2,111.31666666666666,0.016666666666666666,111.33333333333333,0.03333333333333333,111.36666666666666,0.2,111.56666666666666,1.6666666666666667,left,12,0.016031500068493187
test_short_jitter,2,1,10,nogo,right,NA,1,weak,NA,NA,113.23333333333333,0.2,113.48333333333333,0.2,113.68333333333334,0.03333333333333333,113.71666666666667,0.016666666666666666,113.73333333333333,1.6666666666666667,left,12,0.19936049997340888
test_short_jitter,2,1,11,go,left,NA,0,strong,NA,NA,115.4,0.2,115.65,0.016666666666666666,115.66666666666667,0.03333333333333333,115.7,0.2,115.9,1.4333333333333333,left,12,0.01565340009983629
test_short_jitter,2,1,12,Rest,Rest,Rest,Rest,Rest,Rest,Rest,117.33333333333333,2.0,Rest,Rest,Rest,Rest,Rest,Rest,Rest,Rest,Rest,Rest,2.0
test_short_jitter,2,1,13,nogo,right,NA,1,weak,NA,NA,119.33333333333333,0.2,119.58333333333333,0.2,119.78333333333333,0.03333333333333333,119.81666666666666,0.016666666666666666,119.83333333333333,1.7,left,12,0.20023000007495284
test_short_jitter,2,1,14,go,left,NA,0,weak,NA,NA,121.53333333333333,0.2,121.78333333333333,0.2,121.98333333333333,0.03333333333333333,122.01666666666667,0.016666666666666666,122.03333333333333,1.5333333333333334,left,12,0.1993438999634236
test_short_jitter,2,1,15,nogo,right,NA,1,weak,NA,NA,123.56666666666666,0.2,123.81666666666666,0.2,124.01666666666667,0.03333333333333333,124.05,0.016666666666666666,124.06666666666666,1.3666666666666667,left,12,0.19995809998363256
test_short_jitter,2,1,16,Rest,Rest,Rest,Rest,Rest,Rest,Rest,125.43333333333334,2.0,Rest,Rest,Rest,Rest,Rest,Rest,Rest,Rest,Rest,Rest,2.0
test_short_jitter,2,1,17,nogo,right,NA,1,weak,NA,NA,127.43333333333334,0.2,127.68333333333334,0.2,127.88333333333334,0.03333333333333333,127.91666666666667,0.016666666666666666,127.93333333333334,1.3,left,12,0.20037430000957102
test_short_jitter,2,1,18,go,left,NA,0,weak,NA,NA,129.23333333333332,0.2,129.48333333333332,0.2,129.68333333333334,0.03333333333333333,129.71666666666667,0.016666666666666666,129.73333333333332,1.4333333333333333,left,12,0.215927500044927
test_short_jitter,2,1,19,Rest,Rest,Rest,Rest,Rest,Rest,Rest,131.16666666666666,2.0,Rest,Rest,Rest,Rest,Rest,Rest,Rest,Rest,Rest,Rest,2.0
test_short_jitter,2,1,20,nogo,right,NA,1,strong,NA,NA,133.16666666666666,0.2,133.41666666666666,0.016666666666666666,133.43333333333334,0.03333333333333333,133.46666666666667,0.2,133.66666666666666,1.6,left,12,0.016190599999390543
test_short_jitter,2,1,21,Rest,Rest,Rest,Rest,Rest,Rest,Rest,135.26666666666668,2.0,Rest,Rest,Rest,Rest,Rest,Rest,Rest,Rest,Rest,Rest,2.0
test_short_jitter,2,1,22,go,left,NA,0,strong,NA,NA,137.26666666666668,0.2,137.51666666666668,0.016666666666666666,137.53333333333333,0.03333333333333333,137.56666666666666,0.2,137.76666666666668,1.7,left,12,0.01600699999835342
test_short_jitter,2,1,23,go,left,NA,0,weak,NA,NA,139.46666666666667,0.2,139.71666666666667,0.2,139.91666666666666,0.03333333333333333,139.95,0.016666666666666666,139.96666666666667,1.4333333333333333,left,12,0.1991025999886915
test_short_jitter,2,1,24,Rest,Rest,Rest,Rest,Rest,Rest,Rest,141.4,2.0,Rest,Rest,Rest,Rest,Rest,Rest,Rest,Rest,Rest,Rest,2.0
test_short_jitter,2,1,25,go,left,NA,0,strong,NA,NA,143.4,0.2,143.65,0.016666666666666666,143.66666666666666,0.03333333333333333,143.7,0.2,143.9,1.7,left,12,0.01661190006416291
test_short_jitter,2,1,26,go,left,NA,0,weak,NA,NA,145.6,0.2,145.85,0.2,146.05,0.03333333333333333,146.08333333333334,0.016666666666666666,146.1,1.4,left,12,0.20080220000818372
test_short_jitter,2,1,27,go,left,NA,0,weak,NA,NA,147.5,0.2,147.75,0.2,147.95,0.03333333333333333,147.98333333333332,0.016666666666666666,148.0,1.4,left,12,0.20080899994354695
test_short_jitter,2,1,28,Rest,Rest,Rest,Rest,Rest,Rest,Rest,149.4,2.0,Rest,Rest,Rest,Rest,Rest,Rest,Rest,Rest,Rest,Rest,2.0
test_short_jitter,2,1,29,nogo,right,NA,1,weak,NA,NA,151.4,0.2,151.65,0.2,151.85,0.03333333333333333,151.88333333333333,0.016666666666666666,151.9,1.7,left,12,0.19974200008437037
test_short_jitter,2,1,30,nogo,right,NA,1,weak,NA,NA,153.6,0.2,153.85,0.2,154.05,0.03333333333333333,154.08333333333334,0.016666666666666666,154.1,1.4,left,12,0.1997113999677822
test_short_jitter,2,1,31,go,left,NA,0,strong,NA,NA,155.5,0.2,155.75,0.016666666666666666,155.76666666666668,0.03333333333333333,155.8,0.2,156.0,1.6,left,12,0.016142299980856478
test_short_jitter,2,1,32,catch,NA,NA,0,catch,NA,NA,157.6,0.2,157.85,0.0,157.85,0.0,157.85,0.25,158.1,1.5666666666666667,left,12,0.000112100038677454
test_short_jitter,2,1,33,nogo,right,NA,1,strong,NA,NA,159.66666666666666,0.2,159.91666666666666,0.016666666666666666,159.93333333333334,0.03333333333333333,159.96666666666667,0.2,160.16666666666666,1.6,left,12,0.015879199956543744
test_short_jitter,2,1,34,nogo,right,NA,1,strong,NA,NA,161.76666666666668,0.2,162.01666666666668,0.016666666666666666,162.03333333333333,0.03333333333333333,162.06666666666666,0.2,162.26666666666668,1.5333333333333334,left,12,0.017142999917268753
test_short_jitter,2,1,35,Rest,Rest,Rest,Rest,Rest,Rest,Rest,163.8,2.0,Rest,Rest,Rest,Rest,Rest,Rest,Rest,Rest,Rest,Rest,2.0
test_short_jitter,2,1,36,go,left,NA,0,weak,NA,NA,165.8,0.2,166.05,0.2,166.25,0.03333333333333333,166.28333333333333,0.016666666666666666,166.3,1.3666666666666667,left,12,0.19960479997098446
test_short_jitter,2,1,37,catch,NA,NA,0,catch,NA,NA,167.66666666666666,0.2,167.91666666666666,0.0,167.91666666666666,0.0,167.91666666666666,0.25,168.16666666666666,1.3666666666666667,left,12,1.4899997040629387e-05
test_short_jitter,2,1,38,nogo,right,NA,1,strong,NA,NA,169.53333333333333,0.2,169.78333333333333,0.016666666666666666,169.8,0.03333333333333333,169.83333333333334,0.2,170.03333333333333,1.5666666666666667,left,12,0.017533699981868267
test_short_jitter,2,1,39,Rest,Rest,Rest,Rest,Rest,Rest,Rest,171.6,2.0,Rest,Rest,Rest,Rest,Rest,Rest,Rest,Rest,Rest,Rest,2.0
test_short_jitter,2,1,40,nogo,right,NA,1,strong,NA,NA,173.6,0.2,173.85,0.016666666666666666,173.86666666666667,0.03333333333333333,173.9,0.2,174.1,1.4666666666666666,left,12,0.016212500049732625
test_short_jitter,2,1,41,nogo,right,NA,1,strong,NA,NA,175.56666666666666,0.2,175.81666666666666,0.016666666666666666,175.83333333333334,0.03333333333333333,175.86666666666667,0.2,176.06666666666666,1.4666666666666666,left,12,0.01601320004556328
test_short_jitter,2,1,42,go,left,NA,0,strong,NA,NA,177.53333333333333,0.2,177.78333333333333,0.016666666666666666,177.8,0.03333333333333333,177.83333333333334,0.2,178.03333333333333,1.3666666666666667,left,12,0.016793000046163797
test_short_jitter,2,1,43,nogo,right,NA,1,strong,NA,NA,179.4,0.2,179.65,0.016666666666666666,179.66666666666666,0.03333333333333333,179.7,0.2,179.9,1.5333333333333334,left,12,0.01589439995586872
test_short_jitter,2,1,44,go,left,NA,0,weak,NA,NA,181.43333333333334,0.2,181.68333333333334,0.2,181.88333333333333,0.03333333333333333,181.91666666666666,0.016666666666666666,181.93333333333334,1.4333333333333333,left,12,0.19867700000759214
test_short_jitter,2,1,45,catch,NA,NA,0,catch,NA,NA,183.36666666666667,0.2,183.61666666666667,0.0,183.61666666666667,0.0,183.61666666666667,0.25,183.86666666666667,1.6333333333333333,left,12,1.5400000847876072e-05
test_short_jitter,2,1,46,Rest,Rest,Rest,Rest,Rest,Rest,Rest,185.5,2.0,Rest,Rest,Rest,Rest,Rest,Rest,Rest,Rest,Rest,Rest,2.0
test_short_jitter,2,1,1,nogo,right,NA,1,weak,NA,NA,189.8,0.2,190.05,0.2,190.25,0.03333333333333333,190.28333333333333,0.016666666666666666,190.3,1.4333333333333333,left,12,0.2124955999897793
test_short_jitter,2,1,2,go,left,NA,0,weak,NA,NA,191.73333333333332,0.2,191.98333333333332,0.2,192.18333333333334,0.03333333333333333,192.21666666666667,0.016666666666666666,192.23333333333332,1.4,left,12,0.20039710006676614
test_short_jitter,2,1,3,go,left,NA,0,strong,NA,NA,193.63333333333333,0.2,193.88333333333333,0.016666666666666666,193.9,0.03333333333333333,193.93333333333334,0.2,194.13333333333333,1.4666666666666666,left,12,0.015683899982832372
test_short_jitter,2,1,4,Rest,Rest,Rest,Rest,Rest,Rest,Rest,195.6,2.0,Rest,Rest,Rest,Rest,Rest,Rest,Rest,Rest,Rest,Rest,2.0
test_short_jitter,2,1,5,go,left,NA,0,weak,NA,NA,197.6,0.2,197.85,0.2,198.05,0.03333333333333333,198.08333333333334,0.016666666666666666,198.1,1.5333333333333334,left,12,0.20067460008431226
test_short_jitter,2,1,6,nogo,right,NA,1,strong,NA,NA,199.63333333333333,0.2,199.88333333333333,0.016666666666666666,199.9,0.03333333333333333,199.93333333333334,0.2,200.13333333333333,1.6666666666666667,left,12,0.016694399993866682
test_short_jitter,2,1,7,catch,NA,NA,0,catch,NA,NA,201.8,0.2,202.05,0.0,202.05,0.0,202.05,0.25,202.3,1.3,left,12,1.4499993994832039e-05
test_short_jitter,2,1,8,nogo,right,NA,1,strong,NA,NA,203.6,0.2,203.85,0.016666666666666666,203.86666666666667,0.03333333333333333,203.9,0.2,204.1,1.3,left,12,0.0167539999820292
test_short_jitter,2,1,9,Rest,Rest,Rest,Rest,Rest,Rest,Rest,205.4,2.0,Rest,Rest,Rest,Rest,Rest,Rest,Rest,Rest,Rest,Rest,2.0
test_short_jitter,2,1,10,go,left,NA,0,strong,NA,NA,207.4,0.2,207.65,0.016666666666666666,207.66666666666666,0.03333333333333333,207.7,0.2,207.9,1.6666666666666667,left,12,0.01668600004632026
test_short_jitter,2,1,11,go,left,NA,0,weak,NA,NA,209.56666666666666,0.2,209.81666666666666,0.2,210.01666666666668,0.03333333333333333,210.05,0.016666666666666666,210.06666666666666,1.6,left,12,0.1986312000080943
test_short_jitter,2,1,12,go,left,NA,0,strong,NA,NA,211.66666666666666,0.2,211.91666666666666,0.016666666666666666,211.93333333333334,0.03333333333333333,211.96666666666667,0.2,212.16666666666666,1.7,left,12,0.016784299979917705
test_short_jitter,2,1,13,go,left,NA,0,weak,NA,NA,213.86666666666667,0.2,214.11666666666667,0.2,214.31666666666666,0.03333333333333333,214.35,0.016666666666666666,214.36666666666667,1.6,left,12,0.1980241999262944
test_short_jitter,2,1,14,go,left,NA,0,strong,NA,NA,215.96666666666667,0.2,216.21666666666667,0.016666666666666666,216.23333333333332,0.03333333333333333,216.26666666666668,0.2,216.46666666666667,1.6,left,12,0.016821200028061867
test_short_jitter,2,1,15,go,left,NA,0,strong,NA,NA,218.06666666666666,0.2,218.31666666666666,0.016666666666666666,218.33333333333334,0.03333333333333333,218.36666666666667,0.2,218.56666666666666,1.6333333333333333,left,12,0.017178599955514073
test_short_jitter,2,1,16,nogo,right,NA,1,strong,NA,NA,220.2,0.2,220.45,0.016666666666666666,220.46666666666667,0.03333333333333333,220.5,0.2,220.7,1.7,left,12,0.016840399941429496
test_short_jitter,2,1,17,nogo,right,NA,1,weak,NA,NA,222.4,0.2,222.65,0.2,222.85,0.03333333333333333,222.88333333333333,0.016666666666666666,222.9,1.3666666666666667,left,12,0.20015689998399466
test_short_jitter,2,1,18,Rest,Rest,Rest,Rest,Rest,Rest,Rest,224.26666666666668,4.0,Rest,Rest,Rest,Rest,Rest,Rest,Rest,Rest,Rest,Rest,4.0
test_short_jitter,2,1,19,nogo,right,NA,1,weak,NA,NA,228.26666666666668,0.2,228.51666666666668,0.2,228.71666666666667,0.03333333333333333,228.75,0.016666666666666666,228.76666666666668,1.3333333333333333,left,12,0.20021539996378124
test_short_jitter,2,1,20,go,left,NA,0,strong,NA,NA,230.1,0.2,230.35,0.016666666666666666,230.36666666666667,0.03333333333333333,230.4,0.2,230.6,1.4666666666666666,left,12,0.01798070000950247
test_short_jitter,2,1,21,go,left,NA,0,strong,NA,NA,232.06666666666666,0.2,232.31666666666666,0.016666666666666666,232.33333333333334,0.03333333333333333,232.36666666666667,0.2,232.56666666666666,1.3,left,12,0.01677630003541708
test_short_jitter,2,1,22,go,left,NA,0,weak,NA,NA,233.86666666666667,0.2,234.11666666666667,0.2,234.31666666666666,0.03333333333333333,234.35,0.016666666666666666,234.36666666666667,1.4666666666666666,left,12,0.19982799992430955
test_short_jitter,2,1,23,catch,NA,NA,0,catch,NA,NA,235.83333333333334,0.2,236.08333333333334,0.0,236.08333333333334,0.0,236.08333333333334,0.25,236.33333333333334,1.3,left,12,5.1200040616095066e-05
test_short_jitter,2,1,24,nogo,right,NA,1,strong,NA,NA,237.63333333333333,0.2,237.88333333333333,0.016666666666666666,237.9,0.03333333333333333,237.93333333333334,0.2,238.13333333333333,1.5666666666666667,left,12,0.01813019998371601
test_short_jitter,2,1,25,go,left,NA,0,weak,NA,NA,239.7,0.2,239.95,0.2,240.15,0.03333333333333333,240.18333333333334,0.016666666666666666,240.2,1.5333333333333334,left,12,0.1994515999685973
test_short_jitter,2,1,26,nogo,right,NA,1,weak,NA,NA,241.73333333333332,0.2,241.98333333333332,0.2,242.18333333333334,0.03333333333333333,242.21666666666667,0.016666666666666666,242.23333333333332,1.6,left,12,0.20083459990564734
test_short_jitter,2,1,27,nogo,right,NA,1,strong,NA,NA,243.83333333333334,0.2,244.08333333333334,0.016666666666666666,244.1,0.03333333333333333,244.13333333333333,0.2,244.33333333333334,1.6,left,12,0.015509700053371489
test_short_jitter,2,1,28,Rest,Rest,Rest,Rest,Rest,Rest,Rest,245.93333333333334,6.0,Rest,Rest,Rest,Rest,Rest,Rest,Rest,Rest,Rest,Rest,6.0
test_short_jitter,2,1,29,nogo,right,NA,1,weak,NA,NA,251.93333333333334,0.2,252.18333333333334,0.2,252.38333333333333,0.03333333333333333,252.41666666666666,0.016666666666666666,252.43333333333334,1.4666666666666666,left,12,0.19919209997169673
test_short_jitter,2,1,30,catch,NA,NA,0,catch,NA,NA,253.9,0.2,254.15,0.0,254.15,0.0,254.15,0.25,254.4,1.3333333333333333,left,12,3.309990279376507e-05
test_short_jitter,2,1,31,catch,NA,NA,0,catch,NA,NA,255.73333333333332,0.2,255.98333333333332,0.0,255.98333333333332,0.0,255.98333333333332,0.25,256.23333333333335,1.4333333333333333,left,12,1.7200014553964138e-05
test_short_jitter,2,1,32,nogo,right,NA,1,strong,NA,NA,257.6666666666667,0.2,257.9166666666667,0.016666666666666666,257.93333333333334,0.03333333333333333,257.96666666666664,0.2,258.1666666666667,1.6,left,12,0.0176921000238508
test_short_jitter,2,1,33,nogo,right,NA,1,weak,NA,NA,259.76666666666665,0.2,260.01666666666665,0.2,260.21666666666664,0.03333333333333333,260.25,0.016666666666666666,260.26666666666665,1.6333333333333333,left,12,0.19917000003624707
test_short_jitter,2,1,34,go,left,NA,0,strong,NA,NA,261.9,0.2,262.15,0.016666666666666666,262.1666666666667,0.03333333333333333,262.2,0.2,262.4,1.4333333333333333,left,12,0.01757769996766001
test_short_jitter,2,1,35,nogo,right,NA,1,weak,NA,NA,263.8333333333333,0.2,264.0833333333333,0.2,264.28333333333336,0.03333333333333333,264.31666666666666,0.016666666666666666,264.3333333333333,1.4,left,12,0.20034940005280077
test_short_jitter,2,1,36,nogo,right,NA,1,strong,NA,NA,265.73333333333335,0.2,265.98333333333335,0.016666666666666666,266.0,0.03333333333333333,266.03333333333336,0.2,266.23333333333335,1.6333333333333333,left,12,0.015666799969039857
test_short_jitter,2,1,37,Rest,Rest,Rest,Rest,Rest,Rest,Rest,267.8666666666667,2.0,Rest,Rest,Rest,Rest,Rest,Rest,Rest,Rest,Rest,Rest,2.0
test_short_jitter,2,1,38,go,left,NA,0,weak,NA,NA,269.8666666666667,0.2,270.1166666666667,0.2,270.31666666666666,0.03333333333333333,270.35,0.016666666666666666,270.3666666666667,1.5333333333333334,left,12,0.20000850001815706
test_short_jitter,2,1,39,nogo,right,NA,1,strong,NA,NA,271.9,0.2,272.15,0.016666666666666666,272.1666666666667,0.03333333333333333,272.2,0.2,272.4,1.6,left,12,0.01678679999895394
test_short_jitter,2,1,40,nogo,right,NA,1,weak,NA,NA,274.0,0.2,274.25,0.2,274.45,0.03333333333333333,274.48333333333335,0.016666666666666666,274.5,1.4666666666666666,left,12,0.20047239994164556
test_short_jitter,2,1,41,Rest,Rest,Rest,Rest,Rest,Rest,Rest,275.96666666666664,4.0,Rest,Rest,Rest,Rest,Rest,Rest,Rest,Rest,Rest,Rest,4.0
test_short_jitter,2,1,42,go,left,NA,0,weak,NA,NA,279.96666666666664,0.2,280.21666666666664,0.2,280.4166666666667,0.03333333333333333,280.45,0.016666666666666666,280.46666666666664,1.4666666666666666,left,12,0.19876950001344085
test_short_jitter,2,1,1,nogo,right,NA,1,weak,NA,NA,285.6333333333333,0.2,285.8833333333333,0.2,286.0833333333333,0.03333333333333333,286.1166666666667,0.016666666666666666,286.1333333333333,1.6333333333333333,left,12,0.19888859998900443
test_short_jitter,2,1,2,catch,NA,NA,0,catch,NA,NA,287.76666666666665,0.2,288.01666666666665,0.0,288.01666666666665,0.0,288.01666666666665,0.25,288.26666666666665,1.3666666666666667,left,12,1.8200022168457508e-05
test_short_jitter,2,1,3,catch,NA,NA,0,catch,NA,NA,289.6333333333333,0.2,289.8833333333333,0.0,289.8833333333333,0.0,289.8833333333333,0.25,290.1333333333333,1.7,left,12,2.050003968179226e-05
test_short_jitter,2,1,4,nogo,right,NA,1,strong,NA,NA,291.8333333333333,0.2,292.0833333333333,0.016666666666666666,292.1,0.03333333333333333,292.1333333333333,0.2,292.3333333333333,1.3666666666666667,left,12,0.01719819998834282
test_short_jitter,2,1,5,catch,NA,NA,0,catch,NA,NA,293.7,0.2,293.95,0.0,293.95,0.0,293.95,0.25,294.2,1.4333333333333333,left,12,2.2700056433677673e-05
test_short_jitter,2,1,6,Rest,Rest,Rest,Rest,Rest,Rest,Rest,295.6333333333333,4.0,Rest,Rest,Rest,Rest,Rest,Rest,Rest,Rest,Rest,Rest,4.0
test_short_jitter,2,1,7,go,left,NA,0,strong,NA,NA,299.6333333333333,0.2,299.8833333333333,0.016666666666666666,299.9,0.03333333333333333,299.93333333333334,0.2,300.1333333333333,1.7,left,12,0.01688579993788153
test_short_jitter,2,1,8,go,left,NA,0,weak,NA,NA,301.8333333333333,0.2,302.0833333333333,0.2,302.28333333333336,0.03333333333333333,302.31666666666666,0.016666666666666666,302.3333333333333,1.5333333333333334,left,12,0.20179750001989305
test_short_jitter,2,1,9,Rest,Rest,Rest,Rest,Rest,Rest,Rest,303.8666666666667,2.0,Rest,Rest,Rest,Rest,Rest,Rest,Rest,Rest,Rest,Rest,2.0
test_short_jitter,2,1,10,go,left,NA,0,weak,NA,NA,305.8666666666667,0.2,306.1166666666667,0.2,306.31666666666666,0.03333333333333333,306.35,0.016666666666666666,306.3666666666667,1.4,left,12,0.19919640000443906
test_short_jitter,2,1,11,go,left,NA,0,weak,NA,NA,307.76666666666665,0.2,308.01666666666665,0.2,308.21666666666664,0.03333333333333333,308.25,0.016666666666666666,308.26666666666665,1.4666666666666666,left,12,0.20037600002251565
test_short_jitter,2,1,12,go,left,NA,0,weak,NA,NA,309.73333333333335,0.2,309.98333333333335,0.2,310.18333333333334,0.03333333333333333,310.21666666666664,0.016666666666666666,310.23333333333335,1.3333333333333333,left,12,0.20044039993081242
test_short_jitter,2,1,13,Rest,Rest,Rest,Rest,Rest,Rest,Rest,311.56666666666666,4.0,Rest,Rest,Rest,Rest,Rest,Rest,Rest,Rest,Rest,Rest,4.0
test_short_jitter,2,1,14,go,left,NA,0,strong,NA,NA,315.56666666666666,0.2,315.81666666666666,0.016666666666666666,315.8333333333333,0.03333333333333333,315.8666666666667,0.2,316.06666666666666,1.5666666666666667,left,12,0.018155100056901574
test_short_jitter,2,1,15,nogo,right,NA,1,weak,NA,NA,317.6333333333333,0.2,317.8833333333333,0.2,318.0833333333333,0.03333333333333333,318.1166666666667,0.016666666666666666,318.1333333333333,1.6333333333333333,left,12,0.2003807999426499
test_short_jitter,2,1,16,Rest,Rest,Rest,Rest,Rest,Rest,Rest,319.76666666666665,2.0,Rest,Rest,Rest,Rest,Rest,Rest,Rest,Rest,Rest,Rest,2.0
test_short_jitter,2,1,17,go,left,NA,0,strong,NA,NA,321.76666666666665,0.2,322.01666666666665,0.016666666666666666,322.03333333333336,0.03333333333333333,322.06666666666666,0.2,322.26666666666665,1.3333333333333333,left,12,0.017356500029563904
test_short_jitter,2,1,18,go,left,NA,0,strong,NA,NA,323.6,0.2,323.85,0.016666666666666666,323.8666666666667,0.03333333333333333,323.9,0.2,324.1,1.3333333333333333,left,12,0.016439300030469894
test_short_jitter,2,1,19,nogo,right,NA,1,strong,NA,NA,325.43333333333334,0.2,325.68333333333334,0.016666666666666666,325.7,0.03333333333333333,325.73333333333335,0.2,325.93333333333334,1.4,left,12,0.01629319996573031
test_short_jitter,2,1,20,nogo,right,NA,1,weak,NA,NA,327.3333333333333,0.2,327.5833333333333,0.2,327.78333333333336,0.03333333333333333,327.81666666666666,0.016666666666666666,327.8333333333333,1.4333333333333333,left,12,0.19829649990424514
test_short_jitter,2,1,21,go,left,NA,0,weak,NA,NA,329.26666666666665,0.2,329.51666666666665,0.2,329.71666666666664,0.03333333333333333,329.75,0.016666666666666666,329.76666666666665,1.3666666666666667,left,12,0.20063350000418723
test_short_jitter,2,1,22,Rest,Rest,Rest,Rest,Rest,Rest,Rest,331.1333333333333,2.0,Rest,Rest,Rest,Rest,Rest,Rest,Rest,Rest,Rest,Rest,2.0
test_short_jitter,2,1,23,nogo,right,NA,1,weak,NA,NA,333.1333333333333,0.2,333.3833333333333,0.2,333.5833333333333,0.03333333333333333,333.6166666666667,0.016666666666666666,333.6333333333333,1.6333333333333333,left,12,0.19909210002515465
test_short_jitter,2,1,24,Rest,Rest,Rest,Rest,Rest,Rest,Rest,335.26666666666665,2.0,Rest,Rest,Rest,Rest,Rest,Rest,Rest,Rest,Rest,Rest,2.0
test_short_jitter,2,1,25,nogo,right,NA,1,strong,NA,NA,337.26666666666665,0.2,337.51666666666665,0.016666666666666666,337.53333333333336,0.03333333333333333,337.56666666666666,0.2,337.76666666666665,1.7,left,12,0.014393000048585236
test_short_jitter,2,1,26,nogo,right,NA,1,strong,NA,NA,339.46666666666664,0.2,339.71666666666664,0.016666666666666666,339.73333333333335,0.03333333333333333,339.76666666666665,0.2,339.96666666666664,1.6666666666666667,left,12,0.01724139996804297
test_short_jitter,2,1,27,nogo,right,NA,1,strong,NA,NA,341.6333333333333,0.2,341.8833333333333,0.016666666666666666,341.9,0.03333333333333333,341.93333333333334,0.2,342.1333333333333,1.3,left,12,0.016501399921253324
test_short_jitter,2,1,28,nogo,right,NA,1,strong,NA,NA,343.43333333333334,0.2,343.68333333333334,0.016666666666666666,343.7,0.03333333333333333,343.73333333333335,0.2,343.93333333333334,1.7,left,12,0.016730700037442148
test_short_jitter,2,1,29,go,left,NA,0,weak,NA,NA,345.6333333333333,0.2,345.8833333333333,0.2,346.0833333333333,0.03333333333333333,346.1166666666667,0.016666666666666666,346.1333333333333,1.4,left,12,0.19977880001533777
test_short_jitter,2,1,30,nogo,right,NA,1,weak,NA,NA,347.53333333333336,0.2,347.78333333333336,0.2,347.98333333333335,0.03333333333333333,348.01666666666665,0.016666666666666666,348.03333333333336,1.3333333333333333,left,12,0.20136569999158382
test_short_jitter,2,1,31,nogo,right,NA,1,weak,NA,NA,349.3666666666667,0.2,349.6166666666667,0.2,349.81666666666666,0.03333333333333333,349.85,0.016666666666666666,349.8666666666667,1.6333333333333333,left,12,0.20096769998781383
test_short_jitter,2,1,32,nogo,right,NA,1,weak,NA,NA,351.5,0.2,351.75,0.2,351.95,0.03333333333333333,351.98333333333335,0.016666666666666666,352.0,1.5333333333333334,left,12,0.20108140003867447
test_short_jitter,2,1,33,Rest,Rest,Rest,Rest,Rest,Rest,Rest,353.53333333333336,2.0,Rest,Rest,Rest,Rest,Rest,Rest,Rest,Rest,Rest,Rest,2.0
test_short_jitter,2,1,34,go,left,NA,0,weak,NA,NA,355.53333333333336,0.2,355.78333333333336,0.2,355.98333333333335,0.03333333333333333,356.01666666666665,0.016666666666666666,356.03333333333336,1.5333333333333334,left,12,0.19998140004463494
test_short_jitter,2,1,35,nogo,right,NA,1,strong,NA,NA,357.56666666666666,0.2,357.81666666666666,0.016666666666666666,357.8333333333333,0.03333333333333333,357.8666666666667,0.2,358.06666666666666,1.5666666666666667,left,12,0.01663700002245605
test_short_jitter,2,1,36,nogo,right,NA,1,weak,NA,NA,359.6333333333333,0.2,359.8833333333333,0.2,360.0833333333333,0.03333333333333333,360.1166666666667,0.016666666666666666,360.1333333333333,1.4333333333333333,left,12,0.1997675000457093
test_short_jitter,2,1,37,go,left,NA,0,strong,NA,NA,361.56666666666666,0.2,361.81666666666666,0.016666666666666666,361.8333333333333,0.03333333333333333,361.8666666666667,0.2,362.06666666666666,1.3333333333333333,left,12,0.01590949995443225
test_short_jitter,2,1,38,go,left,NA,0,weak,NA,NA,363.4,0.2,363.65,0.2,363.85,0.03333333333333333,363.8833333333333,0.016666666666666666,363.9,1.7,left,12,0.20072999992407858
test_short_jitter,2,1,39,Rest,Rest,Rest,Rest,Rest,Rest,Rest,365.6,2.0,Rest,Rest,Rest,Rest,Rest,Rest,Rest,Rest,Rest,Rest,2.0
test_short_jitter,2,1,40,go,left,NA,0,strong,NA,NA,367.6,0.2,367.85,0.016666666666666666,367.8666666666667,0.03333333333333333,367.9,0.2,368.1,1.4666666666666666,left,12,0.016932200058363378
test_short_jitter,2,1,41,catch,NA,NA,0,catch,NA,NA,369.56666666666666,0.2,369.81666666666666,0.0,369.81666666666666,0.0,369.81666666666666,0.25,370.06666666666666,1.4333333333333333,left,12,2.0000035874545574e-05
test_short_jitter,2,1,42,nogo,right,NA,1,strong,NA,NA,371.5,0.2,371.75,0.016666666666666666,371.76666666666665,0.03333333333333333,371.8,0.2,372.0,1.4,left,12,0.016954499995335937
test_short_jitter,2,1,43,go,left,NA,0,strong,NA,NA,373.4,0.2,373.65,0.016666666666666666,373.6666666666667,0.03333333333333333,373.7,0.2,373.9,1.3666666666666667,left,12,0.016803500009700656
test_short_jitter,2,1,44,go,left,NA,0,strong,NA,NA,375.26666666666665,0.2,375.51666666666665,0.016666666666666666,375.53333333333336,0.03333333333333333,375.56666666666666,0.2,375.76666666666665,1.5333333333333334,left,12,0.01699059992097318
