subid,session,run,trial,trial_type,side,response,correct,strength,response_time,cumulative_response_time,fixation_onset,fixation_dur,stim_onset,stim_dur,blank_onset,blank_dur,mask_onset,mask_dur,response_onset,response_dur,go_side,Staircase_stimulus,Presentation Duration
test234,1,3,1,go,left,left,1,strong,1.5,1.874,0.0,0.2,0.25,0.016666666666666666,0.26666666666666666,0.03333333333333333,0.3,0.2,0.5,1.5,left,12,0.01712440000846982
test234,1,3,2,nogo,right,left,0,strong,1.501,3.674,2.0,0.2,2.25,0.016666666666666666,2.2666666666666666,0.03333333333333333,2.3,0.2,2.5,1.5,left,12,0.016147599963005632
test234,1,3,3,nogo,right,left,0,strong,1.499,5.473,4.0,0.2,4.25,0.016666666666666666,4.266666666666667,0.03333333333333333,4.3,0.2,4.5,1.5,left,12,0.016702900000382215
test234,1,3,4,go,left,left,1,weak,1.501,7.457,6.0,0.2,6.25,0.2,6.45,0.03333333333333333,6.483333333333333,0.016666666666666666,6.5,1.5,left,12,0.19624540000222623
test234,1,3,5,Rest,Rest,Rest,Rest,Rest,Rest,Rest,8.0,2.0,Rest,Rest,Rest,Rest,Rest,Rest,Rest,Rest,Rest,Rest,2.0
test234,1,3,6,go,left,left,1,weak,1.5,11.439,10.0,0.2,10.25,0.2,10.45,0.03333333333333333,10.483333333333333,0.016666666666666666,10.5,1.5,left,12,0.20003770000766963
test234,1,3,7,Rest,Rest,Rest,Rest,Rest,Rest,Rest,12.0,2.0,Rest,Rest,Rest,Rest,Rest,Rest,Rest,Rest,Rest,Rest,2.0
test234,1,3,8,nogo,right,left,0,strong,1.499,15.237,14.0,0.2,14.25,0.016666666666666666,14.266666666666667,0.03333333333333333,14.3,0.2,14.5,1.5,left,12,0.015894400014076382
test234,1,3,9,nogo,right,NA,1,weak,NA,NA,16.0,0.2,16.25,0.2,16.45,0.03333333333333333,16.483333333333334,0.016666666666666666,16.5,1.5,left,12,0.20042960002319887
test234,1,3,10,go,left,left,1,weak,1.494,19.203,18.0,0.2,18.25,0.2,18.45,0.03333333333333333,18.483333333333334,0.016666666666666666,18.5,1.5,left,12,0.20460569998249412
test234,1,3,11,go,left,left,1,weak,1.5,21.186,20.0,0.2,20.25,0.2,20.45,0.03333333333333333,20.483333333333334,0.016666666666666666,20.5,1.5,left,12,0.2000828000018373
test234,1,3,12,nogo,right,NA,1,weak,NA,NA,22.0,0.2,22.25,0.2,22.45,0.03333333333333333,22.483333333333334,0.016666666666666666,22.5,1.5,left,12,0.19992300000740215
test234,1,3,13,go,left,left,1,strong,1.5,24.968,24.0,0.2,24.25,0.016666666666666666,24.266666666666666,0.03333333333333333,24.3,0.2,24.5,1.5,left,12,0.017566399998031557
test234,1,3,14,nogo,right,left,0,weak,1.499,26.951,26.0,0.2,26.25,0.2,26.45,0.03333333333333333,26.483333333333334,0.016666666666666666,26.5,1.5,left,12,0.19990730000426993
test234,1,3,15,nogo,right,left,0,strong,1.5,28.75,28.0,0.2,28.25,0.016666666666666666,28.266666666666666,0.03333333333333333,28.3,0.2,28.5,1.5,left,12,0.01646060001803562
test234,1,3,16,catch,NA,left,1,catch,1.499,30.5,30.0,0.2,30.25,0.0,30.25,0.0,30.25,0.25,30.5,1.5,left,12,1.9000028260052204e-05
test234,1,3,17,go,left,left,1,strong,1.5,32.3,32.0,0.2,32.25,0.016666666666666666,32.266666666666666,0.03333333333333333,32.3,0.2,32.5,1.5,left,12,0.016490799956955016
test234,1,3,18,nogo,right,left,0,strong,1.5,34.099,34.0,0.2,34.25,0.016666666666666666,34.266666666666666,0.03333333333333333,34.3,0.2,34.5,1.5,left,12,0.016588700003921986
test234,1,3,19,nogo,right,NA,1,weak,NA,NA,36.0,0.2,36.25,0.2,36.45,0.03333333333333333,36.483333333333334,0.016666666666666666,36.5,1.5,left,12,0.19995569996535778
test234,1,3,20,Rest,Rest,Rest,Rest,Rest,Rest,Rest,38.0,2.0,Rest,Rest,Rest,Rest,Rest,Rest,Rest,Rest,Rest,Rest,2.0
test234,1,3,21,nogo,right,left,0,strong,1.501,39.882,40.0,0.2,40.25,0.016666666666666666,40.266666666666666,0.03333333333333333,40.3,0.2,40.5,1.5,left,12,0.0160590999876149
test234,1,3,22,Rest,Rest,Rest,Rest,Rest,Rest,Rest,42.0,2.0,Rest,Rest,Rest,Rest,Rest,Rest,Rest,Rest,Rest,Rest,2.0
test234,1,3,23,go,left,left,1,strong,1.5,43.681,44.0,0.2,44.25,0.016666666666666666,44.266666666666666,0.03333333333333333,44.3,0.2,44.5,1.5,left,12,0.015320200007408857
test234,1,3,24,go,left,left,1,strong,1.5,45.48,46.0,0.2,46.25,0.016666666666666666,46.266666666666666,0.03333333333333333,46.3,0.2,46.5,1.5,left,12,0.016340999980457127
test234,1,3,25,catch,NA,left,1,catch,1.5,47.229,48.0,0.2,48.25,0.0,48.25,0.0,48.25,0.25,48.5,1.5,left,12,1.9499973859637976e-05
test234,1,3,26,go,left,left,1,strong,1.5,49.029,50.0,0.2,50.25,0.016666666666666666,50.266666666666666,0.03333333333333333,50.3,0.2,50.5,1.5,left,12,0.016345400013960898
test234,1,3,27,nogo,right,left,0,strong,1.499,50.828,52.0,0.2,52.25,0.016666666666666666,52.266666666666666,0.03333333333333333,52.3,0.2,52.5,1.5,left,12,0.01670059998286888
test234,1,3,28,nogo,right,left,0,weak,1.499,52.811,54.0,0.2,54.25,0.2,54.45,0.03333333333333333,54.483333333333334,0.016666666666666666,54.5,1.5,left,12,0.20054230000823736
test234,1,3,29,go,left,left,1,weak,1.499,54.794,56.0,0.2,56.25,0.2,56.45,0.03333333333333333,56.483333333333334,0.016666666666666666,56.5,1.5,left,12,0.20078080001985654
test234,1,3,30,nogo,right,left,0,strong,1.499,56.594,58.0,0.2,58.25,0.016666666666666666,58.266666666666666,0.03333333333333333,58.3,0.2,58.5,1.5,left,12,0.016359500004909933
test234,1,3,31,nogo,right,NA,1,weak,NA,NA,60.0,0.2,60.25,0.2,60.45,0.03333333333333333,60.483333333333334,0.016666666666666666,60.5,1.5,left,12,0.1994509000214748
test234,1,3,32,go,left,left,1,weak,1.499,60.559,62.0,0.2,62.25,0.2,62.45,0.03333333333333333,62.483333333333334,0.016666666666666666,62.5,1.5,left,12,0.19954160001361743
test234,1,3,33,Rest,Rest,Rest,Rest,Rest,Rest,Rest,64.0,2.0,Rest,Rest,Rest,Rest,Rest,Rest,Rest,Rest,Rest,Rest,2.0
test234,1,3,34,go,left,left,1,weak,1.5,64.542,66.0,0.2,66.25,0.2,66.45,0.03333333333333333,66.48333333333333,0.016666666666666666,66.5,1.5,left,12,0.20060129999183118
test234,1,3,35,catch,NA,left,1,catch,1.499,66.291,68.0,0.2,68.25,0.0,68.25,0.0,68.25,0.25,68.5,1.5,left,12,2.5900022592395544e-05
test234,1,3,36,Rest,Rest,Rest,Rest,Rest,Rest,Rest,70.0,2.0,Rest,Rest,Rest,Rest,Rest,Rest,Rest,Rest,Rest,Rest,2.0
test234,1,3,37,go,left,left,1,weak,1.5,70.274,72.0,0.2,72.25,0.2,72.45,0.03333333333333333,72.48333333333333,0.016666666666666666,72.5,1.5,left,12,0.20000750001054257
test234,1,3,38,go,left,left,1,strong,1.499,72.073,74.0,0.2,74.25,0.016666666666666666,74.26666666666667,0.03333333333333333,74.3,0.2,74.5,1.5,left,12,0.01565760001540184
test234,1,3,39,nogo,right,left,0,strong,1.502,73.874,76.0,0.2,76.25,0.016666666666666666,76.26666666666667,0.03333333333333333,76.3,0.2,76.5,1.5,left,12,0.016959400032646954
test234,1,3,40,go,left,NA,0,strong,NA,NA,78.0,0.2,78.25,0.016666666666666666,78.26666666666667,0.03333333333333333,78.3,0.2,78.5,1.5,left,12,0.01730059995315969
test234,1,3,41,go,left,NA,0,strong,NA,NA,80.0,0.2,80.25,0.016666666666666666,80.26666666666667,0.03333333333333333,80.3,0.2,80.5,1.5,left,12,0.016929400037042797
test234,1,3,43,nogo,right,left,0,strong,1.5,83.57,86.3,0.2,86.55,0.016666666666666666,86.56666666666666,0.03333333333333333,86.6,0.2,86.8,1.5,left,12,0.013319299963768572
test234,1,3,44,go,left,left,1,strong,1.5,85.37,88.3,0.2,88.55,0.016666666666666666,88.56666666666666,0.03333333333333333,88.6,0.2,88.8,1.5,left,12,0.01615380001021549
test234,1,3,45,go,left,NA,0,strong,NA,NA,90.3,0.2,90.55,0.016666666666666666,90.56666666666666,0.03333333333333333,90.6,0.2,90.8,1.5,left,12,0.016616599983535707
test234,1,3,46,nogo,right,NA,1,strong,NA,NA,92.3,0.2,92.55,0.016666666666666666,92.56666666666666,0.03333333333333333,92.6,0.2,92.8,1.5,left,12,0.016947199997957796
test234,1,3,47,catch,NA,NA,0,catch,NA,NA,94.3,0.2,94.55,0.0,94.55,0.0,94.55,0.25,94.8,1.5,left,12,2.0000035874545574e-05
test234,1,3,48,go,left,NA,0,weak,NA,NA,96.3,0.2,96.55,0.2,96.75,0.03333333333333333,96.78333333333333,0.016666666666666666,96.8,1.5,left,12,0.19991909997770563
test234,1,3,49,go,left,NA,0,weak,NA,NA,98.3,0.2,98.55,0.2,98.75,0.03333333333333333,98.78333333333333,0.016666666666666666,98.8,1.5,left,12,0.19939919997705147
test234,1,3,50,Rest,Rest,Rest,Rest,Rest,Rest,Rest,100.3,2.0,Rest,Rest,Rest,Rest,Rest,Rest,Rest,Rest,Rest,Rest,2.0
test234,1,3,51,nogo,right,NA,1,strong,NA,NA,102.3,0.2,102.55,0.016666666666666666,102.56666666666666,0.03333333333333333,102.6,0.2,102.8,1.5,left,12,0.016371200035791844
test234,1,3,52,go,left,NA,0,weak,NA,NA,104.3,0.2,104.55,0.2,104.75,0.03333333333333333,104.78333333333333,0.016666666666666666,104.8,1.5,left,12,0.2002136000082828
test234,1,3,53,go,left,NA,0,strong,NA,NA,106.3,0.2,106.55,0.016666666666666666,106.56666666666666,0.03333333333333333,106.6,0.2,106.8,1.5,left,12,0.0165924999746494
test234,1,3,54,nogo,right,NA,1,weak,NA,NA,108.3,0.2,108.55,0.2,108.75,0.03333333333333333,108.78333333333333,0.016666666666666666,108.8,1.5,left,12,0.19969570002285764
test234,1,3,55,go,left,NA,0,strong,NA,NA,110.3,0.2,110.55,0.016666666666666666,110.56666666666666,0.03333333333333333,110.6,0.2,110.8,1.5,left,12,0.016331200022250414
test234,1,3,56,go,left,NA,0,weak,NA,NA,112.3,0.2,112.55,0.2,112.75,0.03333333333333333,112.78333333333333,0.016666666666666666,112.8,1.5,left,12,0.19994969997787848
test234,1,3,57,go,left,NA,0,strong,NA,NA,114.3,0.2,114.55,0.016666666666666666,114.56666666666666,0.03333333333333333,114.6,0.2,114.8,1.5,left,12,0.016517599986400455
test234,1,3,58,nogo,right,NA,1,strong,NA,NA,116.3,0.2,116.55,0.016666666666666666,116.56666666666666,0.03333333333333333,116.6,0.2,116.8,1.5,left,12,0.016852799977641553
test234,1,3,59,nogo,right,NA,1,strong,NA,NA,118.3,0.2,118.55,0.016666666666666666,118.56666666666666,0.03333333333333333,118.6,0.2,118.8,1.5,left,12,0.016129499999806285
test234,1,3,60,catch,NA,NA,0,catch,NA,NA,120.3,0.2,120.55,0.0,120.55,0.0,120.55,0.25,120.8,1.5,left,12,2.1599989850074053e-05
test234,1,3,61,nogo,right,NA,1,weak,NA,NA,122.3,0.2,122.55,0.2,122.75,0.03333333333333333,122.78333333333333,0.016666666666666666,122.8,1.5,left,12,0.20086499996250495
test234,1,3,62,nogo,right,NA,1,strong,NA,NA,124.3,0.2,124.55,0.016666666666666666,124.56666666666666,0.03333333333333333,124.6,0.2,124.8,1.5,left,12,0.017343400046229362
test234,1,3,63,Rest,Rest,Rest,Rest,Rest,Rest,Rest,126.3,2.0,Rest,Rest,Rest,Rest,Rest,Rest,Rest,Rest,Rest,Rest,2.0
test234,1,3,64,go,left,NA,0,strong,NA,NA,128.3,0.2,128.55,0.016666666666666666,128.56666666666666,0.03333333333333333,128.6,0.2,128.8,1.5,left,12,0.015960399992763996
test234,1,3,65,catch,NA,NA,0,catch,NA,NA,130.3,0.2,130.55,0.0,130.55,0.0,130.55,0.25,130.8,1.5,left,12,2.0899984519928694e-05
test234,1,3,66,go,left,NA,0,weak,NA,NA,132.3,0.2,132.55,0.2,132.75,0.03333333333333333,132.78333333333333,0.016666666666666666,132.8,1.5,left,12,0.19982169999275357
test234,1,3,67,nogo,right,NA,1,weak,NA,NA,134.3,0.2,134.55,0.2,134.75,0.03333333333333333,134.78333333333333,0.016666666666666666,134.8,1.5,left,12,0.20024289999855682
test234,1,3,68,nogo,right,NA,1,weak,NA,NA,136.3,0.2,136.55,0.2,136.75,0.03333333333333333,136.78333333333333,0.016666666666666666,136.8,1.5,left,12,0.19942699995590374
test234,1,3,69,go,left,NA,0,strong,NA,NA,138.3,0.2,138.55,0.016666666666666666,138.56666666666666,0.03333333333333333,138.6,0.2,138.8,1.5,left,12,0.016677500039804727
test234,1,3,70,Rest,Rest,Rest,Rest,Rest,Rest,Rest,140.3,2.0,Rest,Rest,Rest,Rest,Rest,Rest,Rest,Rest,Rest,Rest,2.0
test234,1,3,71,go,left,NA,0,weak,NA,NA,142.3,0.2,142.55,0.2,142.75,0.03333333333333333,142.78333333333333,0.016666666666666666,142.8,1.5,left,12,0.20021630002884194
test234,1,3,72,go,left,NA,0,strong,NA,NA,144.3,0.2,144.55,0.016666666666666666,144.56666666666666,0.03333333333333333,144.6,0.2,144.8,1.5,left,12,0.016262800025288016
test234,1,3,73,Rest,Rest,Rest,Rest,Rest,Rest,Rest,146.3,2.0,Rest,Rest,Rest,Rest,Rest,Rest,Rest,Rest,Rest,Rest,2.0
test234,1,3,74,nogo,right,NA,1,strong,NA,NA,148.3,0.2,148.55,0.016666666666666666,148.56666666666666,0.03333333333333333,148.6,0.2,148.8,1.5,left,12,0.016516600036993623
test234,1,3,75,go,left,NA,0,weak,NA,NA,150.3,0.2,150.55,0.2,150.75,0.03333333333333333,150.78333333333333,0.016666666666666666,150.8,1.5,left,12,0.19920719997026026
test234,1,3,76,Rest,Rest,Rest,Rest,Rest,Rest,Rest,152.3,2.0,Rest,Rest,Rest,Rest,Rest,Rest,Rest,Rest,Rest,Rest,2.0
test234,1,3,77,go,left,NA,0,weak,NA,NA,154.3,0.2,154.55,0.2,154.75,0.03333333333333333,154.78333333333333,0.016666666666666666,154.8,1.5,left,12,0.19967430003453046
test234,1,3,78,Rest,Rest,Rest,Rest,Rest,Rest,Rest,156.3,2.0,Rest,Rest,Rest,Rest,Rest,Rest,Rest,Rest,Rest,Rest,2.0
test234,1,3,79,nogo,right,NA,1,weak,NA,NA,158.3,0.2,158.55,0.2,158.75,0.03333333333333333,158.78333333333333,0.016666666666666666,158.8,1.5,left,12,0.20001470000715926
test234,1,3,80,go,left,NA,0,strong,NA,NA,160.3,0.2,160.55,0.016666666666666666,160.56666666666666,0.03333333333333333,160.6,0.2,160.8,1.5,left,12,0.016320299997460097
test234,1,3,81,nogo,right,NA,1,strong,NA,NA,162.3,0.2,162.55,0.016666666666666666,162.56666666666666,0.03333333333333333,162.6,0.2,162.8,1.5,left,12,0.016769299982115626
test234,1,3,82,nogo,right,NA,1,weak,NA,NA,164.3,0.2,164.55,0.2,164.75,0.03333333333333333,164.78333333333333,0.016666666666666666,164.8,1.5,left,12,0.1997912999941036
test234,1,3,83,Rest,Rest,Rest,Rest,Rest,Rest,Rest,166.3,2.0,Rest,Rest,Rest,Rest,Rest,Rest,Rest,Rest,Rest,Rest,2.0
test234,1,3,84,nogo,right,NA,1,weak,NA,NA,168.3,0.2,168.55,0.2,168.75,0.03333333333333333,168.78333333333333,0.016666666666666666,168.8,1.5,left,12,0.19969610002590343
test234,1,3,86,nogo,right,NA,1,weak,NA,NA,175.96666666666667,0.2,176.21666666666667,0.2,176.41666666666666,0.03333333333333333,176.45,0.016666666666666666,176.46666666666667,1.5,left,12,0.19981259998166934
test234,1,3,87,nogo,right,NA,1,weak,NA,NA,177.96666666666667,0.2,178.21666666666667,0.2,178.41666666666666,0.03333333333333333,178.45,0.016666666666666666,178.46666666666667,1.5,left,12,0.20087419997435063
test234,1,3,88,go,left,NA,0,weak,NA,NA,179.96666666666667,0.2,180.21666666666667,0.2,180.41666666666666,0.03333333333333333,180.45,0.016666666666666666,180.46666666666667,1.5,left,12,0.19897120003588498
test234,1,3,89,nogo,right,NA,1,weak,NA,NA,181.96666666666667,0.2,182.21666666666667,0.2,182.41666666666666,0.03333333333333333,182.45,0.016666666666666666,182.46666666666667,1.5,left,12,0.19926419999683276
test234,1,3,90,nogo,right,NA,1,strong,NA,NA,183.96666666666667,0.2,184.21666666666667,0.016666666666666666,184.23333333333332,0.03333333333333333,184.26666666666668,0.2,184.46666666666667,1.5,left,12,0.0160397999570705
test234,1,3,91,nogo,right,NA,1,strong,NA,NA,185.96666666666667,0.2,186.21666666666667,0.016666666666666666,186.23333333333332,0.03333333333333333,186.26666666666668,0.2,186.46666666666667,1.5,left,12,0.01633630000287667
test234,1,3,92,go,left,NA,0,strong,NA,NA,187.96666666666667,0.2,188.21666666666667,0.016666666666666666,188.23333333333332,0.03333333333333333,188.26666666666668,0.2,188.46666666666667,1.5,left,12,0.016128199989907444
test234,1,3,93,Rest,Rest,Rest,Rest,Rest,Rest,Rest,189.96666666666667,2.0,Rest,Rest,Rest,Rest,Rest,Rest,Rest,Rest,Rest,Rest,2.0
test234,1,3,94,nogo,right,NA,1,weak,NA,NA,191.96666666666667,0.2,192.21666666666667,0.2,192.41666666666666,0.03333333333333333,192.45,0.016666666666666666,192.46666666666667,1.5,left,12,0.20003909996012226
test234,1,3,95,nogo,right,NA,1,weak,NA,NA,193.96666666666667,0.2,194.21666666666667,0.2,194.41666666666666,0.03333333333333333,194.45,0.016666666666666666,194.46666666666667,1.5,left,12,0.19929369998862967
test234,1,3,96,catch,NA,NA,0,catch,NA,NA,195.96666666666667,0.2,196.21666666666667,0.0,196.21666666666667,0.0,196.21666666666667,0.25,196.46666666666667,1.5,left,12,2.3200002033263445e-05
test234,1,3,97,nogo,right,NA,1,strong,NA,NA,197.96666666666667,0.2,198.21666666666667,0.016666666666666666,198.23333333333332,0.03333333333333333,198.26666666666668,0.2,198.46666666666667,1.5,left,12,0.0174682000069879
test234,1,3,98,Rest,Rest,Rest,Rest,Rest,Rest,Rest,199.96666666666667,4.0,Rest,Rest,Rest,Rest,Rest,Rest,Rest,Rest,Rest,Rest,4.0
test234,1,3,99,catch,NA,NA,0,catch,NA,NA,203.96666666666667,0.2,204.21666666666667,0.0,204.21666666666667,0.0,204.21666666666667,0.25,204.46666666666667,1.5,left,12,1.92999723367393e-05
test234,1,3,100,go,left,NA,0,weak,NA,NA,205.96666666666667,0.2,206.21666666666667,0.2,206.41666666666666,0.03333333333333333,206.45,0.016666666666666666,206.46666666666667,1.5,left,12,0.19949019997147843
test234,1,3,101,nogo,right,NA,1,weak,NA,NA,207.96666666666667,0.2,208.21666666666667,0.2,208.41666666666666,0.03333333333333333,208.45,0.016666666666666666,208.46666666666667,1.5,left,12,0.19957649998832494
test234,1,3,102,go,left,NA,0,weak,NA,NA,209.96666666666667,0.2,210.21666666666667,0.2,210.41666666666666,0.03333333333333333,210.45,0.016666666666666666,210.46666666666667,1.5,left,12,0.19939439999870956
test234,1,3,103,nogo,right,NA,1,weak,NA,NA,211.96666666666667,0.2,212.21666666666667,0.2,212.41666666666666,0.03333333333333333,212.45,0.016666666666666666,212.46666666666667,1.5,left,12,0.19957740005338565
test234,1,3,104,catch,NA,NA,0,catch,NA,NA,213.96666666666667,0.2,214.21666666666667,0.0,214.21666666666667,0.0,214.21666666666667,0.25,214.46666666666667,1.5,left,12,1.869996776804328e-05
test234,1,3,105,nogo,right,NA,1,weak,NA,NA,215.96666666666667,0.2,216.21666666666667,0.2,216.41666666666666,0.03333333333333333,216.45,0.016666666666666666,216.46666666666667,1.5,left,12,0.199810600024648
test234,1,3,106,Rest,Rest,Rest,Rest,Rest,Rest,Rest,217.96666666666667,8.0,Rest,Rest,Rest,Rest,Rest,Rest,Rest,Rest,Rest,Rest,8.0
test234,1,3,107,nogo,right,NA,1,strong,NA,NA,225.96666666666667,0.2,226.21666666666667,0.016666666666666666,226.23333333333332,0.03333333333333333,226.26666666666668,0.2,226.46666666666667,1.5,left,12,0.016544400015845895
test234,1,3,108,go,left,NA,0,strong,NA,NA,227.96666666666667,0.2,228.21666666666667,0.016666666666666666,228.23333333333332,0.03333333333333333,228.26666666666668,0.2,228.46666666666667,1.5,left,12,0.017018199956510216
test234,1,3,109,go,left,NA,0,strong,NA,NA,229.96666666666667,0.2,230.21666666666667,0.016666666666666666,230.23333333333332,0.03333333333333333,230.26666666666668,0.2,230.46666666666667,1.5,left,12,0.01609329995699227
test234,1,3,110,catch,NA,NA,0,catch,NA,NA,231.96666666666667,0.2,232.21666666666667,0.0,232.21666666666667,0.0,232.21666666666667,0.25,232.46666666666667,1.5,left,12,2.5799963623285294e-05
test234,1,3,111,nogo,right,NA,1,strong,NA,NA,233.96666666666667,0.2,234.21666666666667,0.016666666666666666,234.23333333333332,0.03333333333333333,234.26666666666668,0.2,234.46666666666667,1.5,left,12,0.016781800019089133
test234,1,3,112,catch,NA,NA,0,catch,NA,NA,235.96666666666667,0.2,236.21666666666667,0.0,236.21666666666667,0.0,236.21666666666667,0.25,236.46666666666667,1.5,left,12,2.0900042727589607e-05
test234,1,3,113,nogo,right,NA,1,weak,NA,NA,237.96666666666667,0.2,238.21666666666667,0.2,238.41666666666666,0.03333333333333333,238.45,0.016666666666666666,238.46666666666667,1.5,left,12,0.20049409999046475
test234,1,3,114,nogo,right,NA,1,weak,NA,NA,239.96666666666667,0.2,240.21666666666667,0.2,240.41666666666666,0.03333333333333333,240.45,0.016666666666666666,240.46666666666667,1.5,left,12,0.2013827000046149
test234,1,3,115,nogo,right,NA,1,strong,NA,NA,241.96666666666667,0.2,242.21666666666667,0.016666666666666666,242.23333333333332,0.03333333333333333,242.26666666666668,0.2,242.46666666666667,1.5,left,12,0.015971299959346652
test234,1,3,116,Rest,Rest,Rest,Rest,Rest,Rest,Rest,243.96666666666667,2.0,Rest,Rest,Rest,Rest,Rest,Rest,Rest,Rest,Rest,Rest,2.0
test234,1,3,117,nogo,right,NA,1,strong,NA,NA,245.96666666666667,0.2,246.21666666666667,0.016666666666666666,246.23333333333332,0.03333333333333333,246.26666666666668,0.2,246.46666666666667,1.5,left,12,0.016196100041270256
test234,1,3,118,go,left,NA,0,strong,NA,NA,247.96666666666667,0.2,248.21666666666667,0.016666666666666666,248.23333333333332,0.03333333333333333,248.26666666666668,0.2,248.46666666666667,1.5,left,12,0.01689480000641197
test234,1,3,119,go,left,NA,0,weak,NA,NA,249.96666666666667,0.2,250.21666666666667,0.2,250.41666666666666,0.03333333333333333,250.45,0.016666666666666666,250.46666666666667,1.5,left,12,0.19856119999894872
test234,1,3,120,go,left,NA,0,weak,NA,NA,251.96666666666667,0.2,252.21666666666667,0.2,252.41666666666666,0.03333333333333333,252.45,0.016666666666666666,252.46666666666667,1.5,left,12,0.19990800000960007
test234,1,3,121,catch,NA,NA,0,catch,NA,NA,253.96666666666667,0.2,254.21666666666667,0.0,254.21666666666667,0.0,254.21666666666667,0.25,254.46666666666667,1.5,left,12,3.71999922208488e-05
test234,1,3,122,go,left,NA,0,strong,NA,NA,255.96666666666667,0.2,256.21666666666664,0.016666666666666666,256.23333333333335,0.03333333333333333,256.26666666666665,0.2,256.46666666666664,1.5,left,12,0.01718039996922016
test234,1,3,123,go,left,NA,0,weak,NA,NA,257.96666666666664,0.2,258.21666666666664,0.2,258.4166666666667,0.03333333333333333,258.45,0.016666666666666666,258.46666666666664,1.5,left,12,0.19968639995204285
test234,1,3,124,nogo,right,NA,1,strong,NA,NA,259.96666666666664,0.2,260.21666666666664,0.016666666666666666,260.23333333333335,0.03333333333333333,260.26666666666665,0.2,260.46666666666664,1.5,left,12,0.01734370004851371
test234,1,3,125,Rest,Rest,Rest,Rest,Rest,Rest,Rest,261.96666666666664,2.0,Rest,Rest,Rest,Rest,Rest,Rest,Rest,Rest,Rest,Rest,2.0
test234,1,3,127,nogo,right,NA,1,weak,NA,NA,269.1666666666667,0.2,269.4166666666667,0.2,269.6166666666667,0.03333333333333333,269.65,0.016666666666666666,269.6666666666667,1.5,left,12,0.2003336999914609
test234,1,3,128,nogo,right,NA,1,weak,NA,NA,271.1666666666667,0.2,271.4166666666667,0.2,271.6166666666667,0.03333333333333333,271.65,0.016666666666666666,271.6666666666667,1.5,left,12,0.19949800003087148
test234,1,3,129,go,left,NA,0,strong,NA,NA,273.1666666666667,0.2,273.4166666666667,0.016666666666666666,273.43333333333334,0.03333333333333333,273.46666666666664,0.2,273.6666666666667,1.5,left,12,0.016733700002077967
test234,1,3,130,go,left,NA,0,weak,NA,NA,275.1666666666667,0.2,275.4166666666667,0.2,275.6166666666667,0.03333333333333333,275.65,0.016666666666666666,275.6666666666667,1.5,left,12,0.20017189998179674
test234,1,3,131,Rest,Rest,Rest,Rest,Rest,Rest,Rest,277.1666666666667,2.0,Rest,Rest,Rest,Rest,Rest,Rest,Rest,Rest,Rest,Rest,2.0
test234,1,3,132,go,left,NA,0,weak,NA,NA,279.1666666666667,0.2,279.4166666666667,0.2,279.6166666666667,0.03333333333333333,279.65,0.016666666666666666,279.6666666666667,1.5,left,12,0.1992834000266157
test234,1,3,133,go,left,NA,0,weak,NA,NA,281.1666666666667,0.2,281.4166666666667,0.2,281.6166666666667,0.03333333333333333,281.65,0.016666666666666666,281.6666666666667,1.5,left,12,0.2001209000009112
test234,1,3,134,Rest,Rest,Rest,Rest,Rest,Rest,Rest,283.1666666666667,2.0,Rest,Rest,Rest,Rest,Rest,Rest,Rest,Rest,Rest,Rest,2.0
test234,1,3,135,go,left,NA,0,weak,NA,NA,285.1666666666667,0.2,285.4166666666667,0.2,285.6166666666667,0.03333333333333333,285.65,0.016666666666666666,285.6666666666667,1.5,left,12,0.19995680003194138
test234,1,3,136,go,left,NA,0,strong,NA,NA,287.1666666666667,0.2,287.4166666666667,0.016666666666666666,287.43333333333334,0.03333333333333333,287.46666666666664,0.2,287.6666666666667,1.5,left,12,0.01549920003162697
test234,1,3,137,catch,NA,NA,0,catch,NA,NA,289.1666666666667,0.2,289.4166666666667,0.0,289.4166666666667,0.0,289.4166666666667,0.25,289.6666666666667,1.5,left,12,2.1099986042827368e-05
test234,1,3,138,nogo,right,NA,1,strong,NA,NA,291.1666666666667,0.2,291.4166666666667,0.016666666666666666,291.43333333333334,0.03333333333333333,291.46666666666664,0.2,291.6666666666667,1.5,left,12,0.016220199991948903
test234,1,3,139,go,left,NA,0,weak,NA,NA,293.1666666666667,0.2,293.4166666666667,0.2,293.6166666666667,0.03333333333333333,293.65,0.016666666666666666,293.6666666666667,1.5,left,12,0.20057220000308007
test234,1,3,140,nogo,right,NA,1,strong,NA,NA,295.1666666666667,0.2,295.4166666666667,0.016666666666666666,295.43333333333334,0.03333333333333333,295.46666666666664,0.2,295.6666666666667,1.5,left,12,0.017123300000093877
test234,1,3,141,Rest,Rest,Rest,Rest,Rest,Rest,Rest,297.1666666666667,2.0,Rest,Rest,Rest,Rest,Rest,Rest,Rest,Rest,Rest,Rest,2.0
test234,1,3,142,nogo,right,NA,1,strong,NA,NA,299.1666666666667,0.2,299.4166666666667,0.016666666666666666,299.43333333333334,0.03333333333333333,299.46666666666664,0.2,299.6666666666667,1.5,left,12,0.016926899959798902
test234,1,3,143,Rest,Rest,Rest,Rest,Rest,Rest,Rest,301.1666666666667,2.0,Rest,Rest,Rest,Rest,Rest,Rest,Rest,Rest,Rest,Rest,2.0
test234,1,3,144,go,left,NA,0,strong,NA,NA,303.1666666666667,0.2,303.4166666666667,0.016666666666666666,303.43333333333334,0.03333333333333333,303.46666666666664,0.2,303.6666666666667,1.5,left,12,0.01624450000235811
test234,1,3,145,nogo,right,NA,1,weak,NA,NA,305.1666666666667,0.2,305.4166666666667,0.2,305.6166666666667,0.03333333333333333,305.65,0.016666666666666666,305.6666666666667,1.5,left,12,0.20035749999806285
test234,1,3,146,nogo,right,NA,1,weak,NA,NA,307.1666666666667,0.2,307.4166666666667,0.2,307.6166666666667,0.03333333333333333,307.65,0.016666666666666666,307.6666666666667,1.5,left,12,0.20035130000906065
test234,1,3,147,nogo,right,NA,1,strong,NA,NA,309.1666666666667,0.2,309.4166666666667,0.016666666666666666,309.43333333333334,0.03333333333333333,309.46666666666664,0.2,309.6666666666667,1.5,left,12,0.017249199969228357
test234,1,3,148,go,left,NA,0,strong,NA,NA,311.1666666666667,0.2,311.4166666666667,0.016666666666666666,311.43333333333334,0.03333333333333333,311.46666666666664,0.2,311.6666666666667,1.5,left,12,0.016732900054194033
test234,1,3,149,go,left,NA,0,strong,NA,NA,313.1666666666667,0.2,313.4166666666667,0.016666666666666666,313.43333333333334,0.03333333333333333,313.46666666666664,0.2,313.6666666666667,1.5,left,12,0.01727710000704974
test234,1,3,150,nogo,right,NA,1,strong,NA,NA,315.1666666666667,0.2,315.4166666666667,0.016666666666666666,315.43333333333334,0.03333333333333333,315.46666666666664,0.2,315.6666666666667,1.5,left,12,0.01713200000813231
test234,1,3,151,nogo,right,NA,1,weak,NA,NA,317.1666666666667,0.2,317.4166666666667,0.2,317.6166666666667,0.03333333333333333,317.65,0.016666666666666666,317.6666666666667,1.5,left,12,0.20035629998892546
test234,1,3,152,go,left,NA,0,strong,NA,NA,319.1666666666667,0.2,319.4166666666667,0.016666666666666666,319.43333333333334,0.03333333333333333,319.46666666666664,0.2,319.6666666666667,1.5,left,12,0.016098199994303286
test234,1,3,153,go,left,NA,0,weak,NA,NA,321.1666666666667,0.2,321.4166666666667,0.2,321.6166666666667,0.03333333333333333,321.65,0.016666666666666666,321.6666666666667,1.5,left,12,0.2007344999583438
test234,1,3,154,go,left,NA,0,weak,NA,NA,323.1666666666667,0.2,323.4166666666667,0.2,323.6166666666667,0.03333333333333333,323.65,0.016666666666666666,323.6666666666667,1.5,left,12,0.19998919998761266
test234,1,3,155,go,left,NA,0,strong,NA,NA,325.1666666666667,0.2,325.4166666666667,0.016666666666666666,325.43333333333334,0.03333333333333333,325.46666666666664,0.2,325.6666666666667,1.5,left,12,0.017249499971512705
test234,1,3,156,Rest,Rest,Rest,Rest,Rest,Rest,Rest,327.1666666666667,6.0,Rest,Rest,Rest,Rest,Rest,Rest,Rest,Rest,Rest,Rest,6.0
test234,1,3,157,catch,NA,NA,0,catch,NA,NA,333.1666666666667,0.2,333.4166666666667,0.0,333.4166666666667,0.0,333.4166666666667,0.25,333.6666666666667,1.5,left,12,1.899997005239129e-05
test234,1,3,158,catch,NA,NA,0,catch,NA,NA,335.1666666666667,0.2,335.4166666666667,0.0,335.4166666666667,0.0,335.4166666666667,0.25,335.6666666666667,1.5,left,12,0.00010489998385310173
test234,1,3,159,nogo,right,NA,1,weak,NA,NA,337.1666666666667,0.2,337.4166666666667,0.2,337.6166666666667,0.03333333333333333,337.65,0.016666666666666666,337.6666666666667,1.5,left,12,0.20043760002590716
test234,1,3,160,Rest,Rest,Rest,Rest,Rest,Rest,Rest,339.1666666666667,2.0,Rest,Rest,Rest,Rest,Rest,Rest,Rest,Rest,Rest,Rest,2.0
test234,1,3,161,go,left,NA,0,weak,NA,NA,341.1666666666667,0.2,341.4166666666667,0.2,341.6166666666667,0.03333333333333333,341.65,0.016666666666666666,341.6666666666667,1.5,left,12,0.19932990003144369
test234,1,3,162,Rest,Rest,Rest,Rest,Rest,Rest,Rest,343.1666666666667,2.0,Rest,Rest,Rest,Rest,Rest,Rest,Rest,Rest,Rest,Rest,2.0
test234,1,3,163,nogo,right,NA,1,weak,NA,NA,345.1666666666667,0.2,345.4166666666667,0.2,345.6166666666667,0.03333333333333333,345.65,0.016666666666666666,345.6666666666667,1.5,left,12,0.2014616000233218
test234,1,3,164,nogo,right,NA,1,weak,NA,NA,347.1666666666667,0.2,347.4166666666667,0.2,347.6166666666667,0.03333333333333333,347.65,0.016666666666666666,347.6666666666667,1.5,left,12,0.20013720000861213
test234,1,3,165,Rest,Rest,Rest,Rest,Rest,Rest,Rest,349.1666666666667,4.0,Rest,Rest,Rest,Rest,Rest,Rest,Rest,Rest,Rest,Rest,4.0
test234,1,3,166,nogo,right,NA,1,strong,NA,NA,353.1666666666667,0.2,353.4166666666667,0.016666666666666666,353.43333333333334,0.03333333333333333,353.46666666666664,0.2,353.6666666666667,1.5,left,12,0.016151699994225055
test234,1,3,167,catch,NA,NA,0,catch,NA,NA,355.1666666666667,0.2,355.4166666666667,0.0,355.4166666666667,0.0,355.4166666666667,0.25,355.6666666666667,1.5,left,12,1.8400023691356182e-05
test234,1,3,168,go,left,NA,0,weak,NA,NA,357.1666666666667,0.2,357.4166666666667,0.2,357.6166666666667,0.03333333333333333,357.65,0.016666666666666666,357.6666666666667,1.5,left,12,0.19950420001987368
test234,1,3,169,go,left,NA,0,strong,NA,NA,359.1666666666667,0.2,359.4166666666667,0.016666666666666666,359.43333333333334,0.03333333333333333,359.46666666666664,0.2,359.6666666666667,1.5,left,12,0.017314400000032037
test234,1,3,170,nogo,right,NA,1,strong,NA,NA,361.1666666666667,0.2,361.4166666666667,0.016666666666666666,361.43333333333334,0.03333333333333333,361.46666666666664,0.2,361.6666666666667,1.5,left,12,0.016784300038125366
test234,1,3,171,Rest,Rest,Rest,Rest,Rest,Rest,Rest,363.1666666666667,2.0,Rest,Rest,Rest,Rest,Rest,Rest,Rest,Rest,Rest,Rest,2.0
