subid,run,trial,trial_type,side,response,correct,strength,response_time,cumulative_response_time,fixation_onset,fixation_dur,stim_onset,stim_dur,blank_onset,blank_dur,mask_onset,mask_dur,response_onset,response_dur,go_side,Staircase_stimulus,Presentation Duration
test34,2,1,nogo,left,left,1,weak,0.861,1.525,0.0,0.2,0.25,0.2,0.45,0.03333333333333333,0.48333333333333334,0.016666666666666666,0.5,1.3,right,12,0.25184740000986494
test34,2,2,nogo,left,left,1,weak,0.459,3.353,1.8,0.2,2.05,0.2,2.25,0.03333333333333333,2.283333333333333,0.016666666666666666,2.3,1.3,right,12,0.24798019998706877
test34,2,3,go,right,NA,0,weak,NA,NA,3.6,0.2,3.85,0.2,4.05,0.03333333333333333,4.083333333333333,0.016666666666666666,4.1,1.3,right,12,0.2466664000239689
test34,2,4,go,right,NA,0,weak,NA,NA,5.4,0.2,5.65,0.2,5.85,0.03333333333333333,5.883333333333334,0.016666666666666666,5.9,1.3,right,12,0.2510214000067208
test34,2,5,go,right,right,1,weak,0.761,10.341,7.2,0.2,7.45,0.2,7.65,0.03333333333333333,7.683333333333334,0.016666666666666666,7.7,1.3,right,12,0.2536764999968
test34,2,6,nogo,left,right,0,strong,0.732,12.314,9.0,0.2,9.25,0.016666666666666666,9.266666666666667,0.03333333333333333,9.3,0.2,9.5,1.3,right,12,0.016916399996262044
test34,2,7,nogo,left,right,0,strong,0.503,14.087,10.8,0.2,11.05,0.016666666666666666,11.066666666666666,0.03333333333333333,11.1,0.2,11.3,1.3,right,12,0.019433500012382865
test34,2,8,catch,NA,right,1,catch,0.417,15.941,12.6,0.2,12.85,0.0,12.85,0.0,12.85,0.25,13.1,1.3,right,12,5.050000618211925e-05
test34,2,9,Rest,Rest,Rest,Rest,Rest,Rest,Rest,14.4,3.6,Rest,Rest,Rest,Rest,Rest,Rest,Rest,Rest,Rest,Rest,3.6
test34,2,10,go,right,right,1,weak,0.096,22.339,18.0,0.2,18.25,0.2,18.45,0.03333333333333333,18.483333333333334,0.016666666666666666,18.5,1.3,right,12,0.2526275000127498
test34,2,11,go,right,right,1,weak,0.192,24.673,19.8,0.2,20.05,0.2,20.25,0.03333333333333333,20.283333333333335,0.016666666666666666,20.3,1.3,right,12,0.2510918000189122
test34,2,12,go,right,right,1,weak,0.107,26.819,21.6,0.2,21.85,0.2,22.05,0.03333333333333333,22.083333333333332,0.016666666666666666,22.1,1.3,right,12,0.24206250000861473
test34,2,13,Rest,Rest,Rest,Rest,Rest,Rest,Rest,23.4,1.8,Rest,Rest,Rest,Rest,Rest,Rest,Rest,Rest,Rest,Rest,1.8
test34,2,14,catch,NA,right,1,catch,0.335,31.231,25.2,0.2,25.45,0.0,25.45,0.0,25.45,0.25,25.7,1.3,right,12,6.130000110715628e-05
test34,2,15,catch,NA,right,1,catch,0.691,33.526,27.0,0.2,27.25,0.0,27.25,0.0,27.25,0.25,27.5,1.3,right,12,5.639999289996922e-05
test34,2,16,nogo,left,right,0,strong,0.481,35.314,28.8,0.2,29.05,0.016666666666666666,29.066666666666666,0.03333333333333333,29.1,0.2,29.3,1.3,right,12,0.01999739999882877
test34,2,17,catch,NA,right,1,catch,0.615,37.379,30.6,0.2,30.85,0.0,30.85,0.0,30.85,0.25,31.1,1.3,right,12,1.5700003132224083e-05
test34,2,18,catch,NA,right,1,catch,0.655,39.357,32.4,0.2,32.65,0.0,32.65,0.0,32.65,0.25,32.9,1.3,right,12,2.5699991965666413e-05
test34,2,19,go,right,right,1,weak,0.42,41.357,34.2,0.2,34.45,0.2,34.65,0.03333333333333333,34.68333333333333,0.016666666666666666,34.7,1.3,right,12,0.26138240000000224
test34,2,20,nogo,left,left,1,weak,0.459,43.623,36.0,0.2,36.25,0.2,36.45,0.03333333333333333,36.483333333333334,0.016666666666666666,36.5,1.3,right,12,0.249863600009121
test34,2,21,go,right,right,1,weak,0.231,45.626,37.8,0.2,38.05,0.2,38.25,0.03333333333333333,38.28333333333333,0.016666666666666666,38.3,1.3,right,12,0.24955959999351762
test34,2,22,Rest,Rest,Rest,Rest,Rest,Rest,Rest,39.6,1.8,Rest,Rest,Rest,Rest,Rest,Rest,Rest,Rest,Rest,Rest,1.8
test34,2,23,nogo,left,right,0,strong,0.312,49.957,41.4,0.2,41.65,0.016666666666666666,41.666666666666664,0.03333333333333333,41.7,0.2,41.9,1.3,right,12,0.021443000005092472
test34,2,24,Rest,Rest,Rest,Rest,Rest,Rest,Rest,43.2,1.8,Rest,Rest,Rest,Rest,Rest,Rest,Rest,Rest,Rest,Rest,1.8
test34,2,25,go,right,right,1,weak,0.519,54.637,45.0,0.2,45.25,0.2,45.45,0.03333333333333333,45.483333333333334,0.016666666666666666,45.5,1.3,right,12,0.251397599990014
test34,2,26,go,right,right,1,weak,0.48,56.834,46.8,0.2,47.05,0.2,47.25,0.03333333333333333,47.28333333333333,0.016666666666666666,47.3,1.3,right,12,0.25045580000733025
test34,2,27,nogo,left,right,0,strong,0.545,58.891,48.6,0.2,48.85,0.016666666666666666,48.86666666666667,0.03333333333333333,48.9,0.2,49.1,1.3,right,12,0.021446700004162267
test34,2,28,nogo,left,right,0,strong,0.525,60.873,50.4,0.2,50.65,0.016666666666666666,50.666666666666664,0.03333333333333333,50.7,0.2,50.9,1.3,right,12,0.020930999977281317
test34,2,29,Rest,Rest,Rest,Rest,Rest,Rest,Rest,52.2,1.8,Rest,Rest,Rest,Rest,Rest,Rest,Rest,Rest,Rest,Rest,1.8
test34,2,30,nogo,left,right,0,weak,0.522,65.349,54.0,0.2,54.25,0.2,54.45,0.03333333333333333,54.483333333333334,0.016666666666666666,54.5,1.3,right,12,0.25121390001731925
test34,2,31,nogo,left,right,0,weak,0.528,67.582,55.8,0.2,56.05,0.2,56.25,0.03333333333333333,56.28333333333333,0.016666666666666666,56.3,1.3,right,12,0.25703280000016093
test34,2,32,nogo,left,NA,1,weak,NA,NA,57.6,0.2,57.85,0.2,58.05,0.03333333333333333,58.083333333333336,0.016666666666666666,58.1,1.3,right,12,0.2496953000081703
test34,2,33,go,right,right,1,weak,0.58,72.097,59.4,0.2,59.65,0.2,59.85,0.03333333333333333,59.88333333333333,0.016666666666666666,59.9,1.3,right,12,0.23789109999779612
test34,2,34,nogo,left,NA,1,weak,NA,NA,61.2,0.2,61.45,0.2,61.65,0.03333333333333333,61.68333333333333,0.016666666666666666,61.7,1.3,right,12,0.2506022000161465
test34,2,35,Rest,Rest,Rest,Rest,Rest,Rest,Rest,63.0,1.8,Rest,Rest,Rest,Rest,Rest,Rest,Rest,Rest,Rest,Rest,1.8
test34,2,36,nogo,left,right,0,strong,0.745,78.732,64.8,0.2,65.05,0.016666666666666666,65.06666666666666,0.03333333333333333,65.1,0.2,65.3,1.3,right,12,0.022244099993258715
test34,2,37,Rest,Rest,Rest,Rest,Rest,Rest,Rest,66.6,1.8,Rest,Rest,Rest,Rest,Rest,Rest,Rest,Rest,Rest,Rest,1.8
test34,2,38,nogo,left,right,0,weak,0.543,83.015,68.4,0.2,68.65,0.2,68.85,0.03333333333333333,68.88333333333334,0.016666666666666666,68.9,1.3,right,12,0.24662059999536723
test34,2,39,nogo,left,NA,1,weak,NA,NA,70.2,0.2,70.45,0.2,70.65,0.03333333333333333,70.68333333333334,0.016666666666666666,70.7,1.3,right,12,0.24893909998354502
test34,2,40,nogo,left,NA,1,strong,NA,NA,72.0,0.2,72.25,0.016666666666666666,72.26666666666667,0.03333333333333333,72.3,0.2,72.5,1.3,right,12,0.019083899998804554
test34,2,41,nogo,left,NA,1,weak,NA,NA,73.8,0.2,74.05,0.2,74.25,0.03333333333333333,74.28333333333333,0.016666666666666666,74.3,1.3,right,12,0.2477336000010837
test34,2,42,go,right,right,1,weak,0.088,91.242,75.6,0.2,75.85,0.2,76.05,0.03333333333333333,76.08333333333333,0.016666666666666666,76.1,1.3,right,12,0.25324900000123307
test34,2,43,nogo,left,right,0,strong,1.457,94.617,77.4,0.2,77.65,0.016666666666666666,77.66666666666667,0.03333333333333333,77.7,0.2,77.9,1.3,right,12,0.022686999989673495
test34,2,44,Rest,Rest,Rest,Rest,Rest,Rest,Rest,79.2,1.8,Rest,Rest,Rest,Rest,Rest,Rest,Rest,Rest,Rest,Rest,1.8
test34,2,1,nogo,left,left,1,strong,0.89,103.299,83.2,0.2,83.45,0.016666666666666666,83.46666666666667,0.03333333333333333,83.5,0.2,83.7,1.3,right,12,0.02544789999956265
test34,2,2,nogo,left,NA,1,weak,NA,NA,85.0,0.2,85.25,0.2,85.45,0.03333333333333333,85.48333333333333,0.016666666666666666,85.5,1.3,right,12,0.24163750000298023
test34,2,3,go,right,NA,0,weak,NA,NA,86.8,0.2,87.05,0.2,87.25,0.03333333333333333,87.28333333333333,0.016666666666666666,87.3,1.3,right,12,0.24338270002044737
test34,2,4,go,right,NA,0,weak,NA,NA,88.6,0.2,88.85,0.2,89.05,0.03333333333333333,89.08333333333333,0.016666666666666666,89.1,1.3,right,12,0.24921210002503358
test34,2,5,nogo,left,NA,1,strong,NA,NA,90.4,0.2,90.65,0.016666666666666666,90.66666666666667,0.03333333333333333,90.7,0.2,90.9,1.3,right,12,0.023633800010429695
test34,2,6,nogo,left,NA,1,weak,NA,NA,92.2,0.2,92.45,0.2,92.65,0.03333333333333333,92.68333333333334,0.016666666666666666,92.7,1.3,right,12,0.24339230000623502
test34,2,7,nogo,left,NA,1,weak,NA,NA,94.0,0.2,94.25,0.2,94.45,0.03333333333333333,94.48333333333333,0.016666666666666666,94.5,1.3,right,12,0.2552457000128925
test34,2,8,nogo,left,NA,1,weak,NA,NA,95.8,0.2,96.05,0.2,96.25,0.03333333333333333,96.28333333333333,0.016666666666666666,96.3,1.3,right,12,0.24650569999357685
test34,2,9,Rest,Rest,Rest,Rest,Rest,Rest,Rest,97.6,1.8,Rest,Rest,Rest,Rest,Rest,Rest,Rest,Rest,Rest,Rest,1.8
test34,2,10,nogo,left,NA,1,strong,NA,NA,99.4,0.2,99.65,0.016666666666666666,99.66666666666667,0.03333333333333333,99.7,0.2,99.9,1.3,right,12,0.020792099996469915
test34,2,11,Rest,Rest,Rest,Rest,Rest,Rest,Rest,101.2,1.8,Rest,Rest,Rest,Rest,Rest,Rest,Rest,Rest,Rest,Rest,1.8
test34,2,12,go,right,NA,0,weak,NA,NA,103.0,0.2,103.25,0.2,103.45,0.03333333333333333,103.48333333333333,0.016666666666666666,103.5,1.3,right,12,0.2547770999954082
test34,2,13,catch,NA,NA,0,catch,NA,NA,104.8,0.2,105.05,0.0,105.05,0.0,105.05,0.25,105.3,1.3,right,12,7.229999755509198e-05
test34,2,14,nogo,left,NA,1,weak,NA,NA,106.6,0.2,106.85,0.2,107.05,0.03333333333333333,107.08333333333333,0.016666666666666666,107.1,1.3,right,12,0.24856390000786632
test34,2,15,Rest,Rest,Rest,Rest,Rest,Rest,Rest,108.4,1.8,Rest,Rest,Rest,Rest,Rest,Rest,Rest,Rest,Rest,Rest,1.8
test34,2,16,go,right,NA,0,weak,NA,NA,110.2,0.2,110.45,0.2,110.65,0.03333333333333333,110.68333333333334,0.016666666666666666,110.7,1.3,right,12,0.25750459998380393
test34,2,17,nogo,left,NA,1,weak,NA,NA,112.0,0.2,112.25,0.2,112.45,0.03333333333333333,112.48333333333333,0.016666666666666666,112.5,1.3,right,12,0.2523440000077244
test34,2,18,nogo,left,NA,1,weak,NA,NA,113.8,0.2,114.05,0.2,114.25,0.03333333333333333,114.28333333333333,0.016666666666666666,114.3,1.3,right,12,0.2550768000073731
test34,2,19,Rest,Rest,Rest,Rest,Rest,Rest,Rest,115.6,5.4,Rest,Rest,Rest,Rest,Rest,Rest,Rest,Rest,Rest,Rest,5.4
test34,2,20,go,right,NA,0,weak,NA,NA,121.0,0.2,121.25,0.2,121.45,0.03333333333333333,121.48333333333333,0.016666666666666666,121.5,1.3,right,12,0.24427620001370087
test34,2,21,Rest,Rest,Rest,Rest,Rest,Rest,Rest,122.8,3.6,Rest,Rest,Rest,Rest,Rest,Rest,Rest,Rest,Rest,Rest,3.6
test34,2,22,nogo,left,NA,1,strong,NA,NA,126.4,0.2,126.65,0.016666666666666666,126.66666666666667,0.03333333333333333,126.7,0.2,126.9,1.3,right,12,0.0262479999801144
test34,2,23,nogo,left,NA,1,strong,NA,NA,128.2,0.2,128.45,0.016666666666666666,128.46666666666667,0.03333333333333333,128.5,0.2,128.7,1.3,right,12,0.017184600001201034
test34,2,24,catch,NA,NA,0,catch,NA,NA,130.0,0.2,130.25,0.0,130.25,0.0,130.25,0.25,130.5,1.3,right,12,1.990000600926578e-05
test34,2,25,nogo,left,NA,1,strong,NA,NA,131.8,0.2,132.05,0.016666666666666666,132.06666666666666,0.03333333333333333,132.1,0.2,132.3,1.3,right,12,0.020966800017049536
test34,2,26,go,right,NA,0,weak,NA,NA,133.6,0.2,133.85,0.2,134.05,0.03333333333333333,134.08333333333334,0.016666666666666666,134.1,1.3,right,12,0.25059219999820925
test34,2,27,go,right,NA,0,weak,NA,NA,135.4,0.2,135.65,0.2,135.85,0.03333333333333333,135.88333333333333,0.016666666666666666,135.9,1.3,right,12,0.24472239997703582
test34,2,28,nogo,left,NA,1,strong,NA,NA,137.2,0.2,137.45,0.016666666666666666,137.46666666666667,0.03333333333333333,137.5,0.2,137.7,1.3,right,12,0.023464700003387406
test34,2,29,nogo,left,NA,1,strong,NA,NA,139.0,0.2,139.25,0.016666666666666666,139.26666666666668,0.03333333333333333,139.3,0.2,139.5,1.3,right,12,0.030652300018118694
test34,2,30,go,right,NA,0,weak,NA,NA,140.8,0.2,141.05,0.2,141.25,0.03333333333333333,141.28333333333333,0.016666666666666666,141.3,1.3,right,12,0.25287560001015663
test34,2,31,nogo,left,NA,1,weak,NA,NA,142.6,0.2,142.85,0.2,143.05,0.03333333333333333,143.08333333333334,0.016666666666666666,143.1,1.3,right,12,0.2518868999904953
test34,2,32,nogo,left,NA,1,weak,NA,NA,144.4,0.2,144.65,0.2,144.85,0.03333333333333333,144.88333333333333,0.016666666666666666,144.9,1.3,right,12,0.267024600005243
test34,2,33,catch,NA,NA,0,catch,NA,NA,146.2,0.2,146.45,0.0,146.45,0.0,146.45,0.25,146.7,1.3,right,12,4.2100000428035855e-05
test34,2,34,nogo,left,NA,1,strong,NA,NA,148.0,0.2,148.25,0.016666666666666666,148.26666666666668,0.03333333333333333,148.3,0.2,148.5,1.3,right,12,0.024971799983177334
test34,2,35,Rest,Rest,Rest,Rest,Rest,Rest,Rest,149.8,1.8,Rest,Rest,Rest,Rest,Rest,Rest,Rest,Rest,Rest,Rest,1.8
test34,2,36,catch,NA,NA,0,catch,NA,NA,151.6,0.2,151.85,0.0,151.85,0.0,151.85,0.25,152.1,1.3,right,12,1.379998866468668e-05
test34,2,37,nogo,left,NA,1,strong,NA,NA,153.4,0.2,153.65,0.016666666666666666,153.66666666666666,0.03333333333333333,153.7,0.2,153.9,1.3,right,12,0.01890369999455288
test34,2,38,nogo,left,NA,1,strong,NA,NA,155.2,0.2,155.45,0.016666666666666666,155.46666666666667,0.03333333333333333,155.5,0.2,155.7,1.3,right,12,0.022706799994921312
test34,2,39,go,right,NA,0,weak,NA,NA,157.0,0.2,157.25,0.2,157.45,0.03333333333333333,157.48333333333332,0.016666666666666666,157.5,1.3,right,12,0.3585251999902539
test34,2,40,go,right,NA,0,weak,NA,NA,158.8,0.2,159.05,0.2,159.25,0.03333333333333333,159.28333333333333,0.016666666666666666,159.3,1.3,right,12,0.24567299999762326
test34,2,41,go,right,NA,0,weak,NA,NA,160.6,0.2,160.85,0.2,161.05,0.03333333333333333,161.08333333333334,0.016666666666666666,161.1,1.3,right,12,0.27030129998456687
test34,2,42,nogo,left,NA,1,weak,NA,NA,162.4,0.2,162.65,0.2,162.85,0.03333333333333333,162.88333333333333,0.016666666666666666,162.9,1.3,right,12,0.2495989000017289
test34,2,1,nogo,left,NA,1,weak,NA,NA,167.4,0.2,167.65,0.2,167.85,0.03333333333333333,167.88333333333333,0.016666666666666666,167.9,1.3,right,12,0.26939600001787767
test34,2,2,Rest,Rest,Rest,Rest,Rest,Rest,Rest,169.2,1.8,Rest,Rest,Rest,Rest,Rest,Rest,Rest,Rest,Rest,Rest,1.8
test34,2,3,nogo,left,NA,1,weak,NA,NA,171.0,0.2,171.25,0.2,171.45,0.03333333333333333,171.48333333333332,0.016666666666666666,171.5,1.3,right,12,0.25267459999304265
test34,2,4,go,right,NA,0,weak,NA,NA,172.8,0.2,173.05,0.2,173.25,0.03333333333333333,173.28333333333333,0.016666666666666666,173.3,1.3,right,12,0.26844610000262037
test34,2,5,nogo,left,NA,1,weak,NA,NA,174.6,0.2,174.85,0.2,175.05,0.03333333333333333,175.08333333333334,0.016666666666666666,175.1,1.3,right,12,0.2505982000147924
test34,2,6,nogo,left,NA,1,weak,NA,NA,176.4,0.2,176.65,0.2,176.85,0.03333333333333333,176.88333333333333,0.016666666666666666,176.9,1.3,right,12,0.2482101000205148
test34,2,7,Rest,Rest,Rest,Rest,Rest,Rest,Rest,178.2,1.8,Rest,Rest,Rest,Rest,Rest,Rest,Rest,Rest,Rest,Rest,1.8
test34,2,8,go,right,NA,0,weak,NA,NA,180.0,0.2,180.25,0.2,180.45,0.03333333333333333,180.48333333333332,0.016666666666666666,180.5,1.3,right,12,0.25575579999713227
test34,2,9,nogo,left,NA,1,weak,NA,NA,181.8,0.2,182.05,0.2,182.25,0.03333333333333333,182.28333333333333,0.016666666666666666,182.3,1.3,right,12,0.25286169999162666
test34,2,10,go,right,NA,0,weak,NA,NA,183.6,0.2,183.85,0.2,184.05,0.03333333333333333,184.08333333333334,0.016666666666666666,184.1,1.3,right,12,0.2598959000024479
test34,2,11,go,right,NA,0,weak,NA,NA,185.4,0.2,185.65,0.2,185.85,0.03333333333333333,185.88333333333333,0.016666666666666666,185.9,1.3,right,12,0.24704190000193194
test34,2,12,nogo,left,NA,1,strong,NA,NA,187.2,0.2,187.45,0.016666666666666666,187.46666666666667,0.03333333333333333,187.5,0.2,187.7,1.3,right,12,0.020749000017531216
test34,2,13,nogo,left,NA,1,strong,NA,NA,189.0,0.2,189.25,0.016666666666666666,189.26666666666668,0.03333333333333333,189.3,0.2,189.5,1.3,right,12,0.021504300006199628
test34,2,14,nogo,left,NA,1,weak,NA,NA,190.8,0.2,191.05,0.2,191.25,0.03333333333333333,191.28333333333333,0.016666666666666666,191.3,1.3,right,12,0.24980580000556074
test34,2,15,nogo,left,NA,1,strong,NA,NA,192.6,0.2,192.85,0.016666666666666666,192.86666666666667,0.03333333333333333,192.9,0.2,193.1,1.3,right,12,0.02434109998284839
test34,2,16,nogo,left,NA,1,strong,NA,NA,194.4,0.2,194.65,0.016666666666666666,194.66666666666666,0.03333333333333333,194.7,0.2,194.9,1.3,right,12,0.018800499994540587
test34,2,17,nogo,left,NA,1,strong,NA,NA,196.2,0.2,196.45,0.016666666666666666,196.46666666666667,0.03333333333333333,196.5,0.2,196.7,1.3,right,12,0.022312199987936765
test34,2,18,go,right,NA,0,weak,NA,NA,198.0,0.2,198.25,0.2,198.45,0.03333333333333333,198.48333333333332,0.016666666666666666,198.5,1.3,right,12,0.24718320000101812
test34,2,19,Rest,Rest,Rest,Rest,Rest,Rest,Rest,199.8,1.8,Rest,Rest,Rest,Rest,Rest,Rest,Rest,Rest,Rest,Rest,1.8
test34,2,20,nogo,left,NA,1,weak,NA,NA,201.6,0.2,201.85,0.2,202.05,0.03333333333333333,202.08333333333334,0.016666666666666666,202.1,1.3,right,12,0.25081060000229627
test34,2,21,Rest,Rest,Rest,Rest,Rest,Rest,Rest,203.4,3.6,Rest,Rest,Rest,Rest,Rest,Rest,Rest,Rest,Rest,Rest,3.6
test34,2,22,nogo,left,NA,1,weak,NA,NA,207.0,0.2,207.25,0.2,207.45,0.03333333333333333,207.48333333333332,0.016666666666666666,207.5,1.3,right,12,0.24421699999948032
test34,2,23,catch,NA,NA,0,catch,NA,NA,208.8,0.2,209.05,0.0,209.05,0.0,209.05,0.25,209.3,1.3,right,12,4.909999552182853e-05
test34,2,24,go,right,NA,0,weak,NA,NA,210.6,0.2,210.85,0.2,211.05,0.03333333333333333,211.08333333333334,0.016666666666666666,211.1,1.3,right,12,0.2500304999994114
test34,2,25,Rest,Rest,Rest,Rest,Rest,Rest,Rest,212.4,1.8,Rest,Rest,Rest,Rest,Rest,Rest,Rest,Rest,Rest,Rest,1.8
test34,2,26,nogo,left,NA,1,strong,NA,NA,214.2,0.2,214.45,0.016666666666666666,214.46666666666667,0.03333333333333333,214.5,0.2,214.7,1.3,right,12,0.02117490000091493
test34,2,27,nogo,left,NA,1,strong,NA,NA,216.0,0.2,216.25,0.016666666666666666,216.26666666666668,0.03333333333333333,216.3,0.2,216.5,1.3,right,12,0.023895800026366487
test34,2,28,Rest,Rest,Rest,Rest,Rest,Rest,Rest,217.8,1.8,Rest,Rest,Rest,Rest,Rest,Rest,Rest,Rest,Rest,Rest,1.8
test34,2,29,catch,NA,NA,0,catch,NA,NA,219.6,0.2,219.85,0.0,219.85,0.0,219.85,0.25,220.1,1.3,right,12,2.759997732937336e-05
test34,2,30,nogo,left,NA,1,weak,NA,NA,221.4,0.2,221.65,0.2,221.85,0.03333333333333333,221.88333333333333,0.016666666666666666,221.9,1.3,right,12,0.25935910001862794
test34,2,31,nogo,left,NA,1,strong,NA,NA,223.2,0.2,223.45,0.016666666666666666,223.46666666666667,0.03333333333333333,223.5,0.2,223.7,1.3,right,12,0.016960999986622483
test34,2,32,Rest,Rest,Rest,Rest,Rest,Rest,Rest,225.0,1.8,Rest,Rest,Rest,Rest,Rest,Rest,Rest,Rest,Rest,Rest,1.8
test34,2,33,nogo,left,NA,1,strong,NA,NA,226.8,0.2,227.05,0.016666666666666666,227.06666666666666,0.03333333333333333,227.1,0.2,227.3,1.3,right,12,0.016136599995661527
test34,2,34,nogo,left,NA,1,strong,NA,NA,228.6,0.2,228.85,0.016666666666666666,228.86666666666667,0.03333333333333333,228.9,0.2,229.1,1.3,right,12,0.017955899995286018
test34,2,35,Rest,Rest,Rest,Rest,Rest,Rest,Rest,230.4,1.8,Rest,Rest,Rest,Rest,Rest,Rest,Rest,Rest,Rest,Rest,1.8
test34,2,36,nogo,left,NA,1,strong,NA,NA,232.2,0.2,232.45,0.016666666666666666,232.46666666666667,0.03333333333333333,232.5,0.2,232.7,1.3,right,12,0.026504799985559657
test34,2,37,catch,NA,NA,0,catch,NA,NA,234.0,0.2,234.25,0.0,234.25,0.0,234.25,0.25,234.5,1.3,right,12,2.1299987565726042e-05
test34,2,38,catch,NA,NA,0,catch,NA,NA,235.8,0.2,236.05,0.0,236.05,0.0,236.05,0.25,236.3,1.3,right,12,0.00017759998445399106
test34,2,39,go,right,NA,0,weak,NA,NA,237.6,0.2,237.85,0.2,238.05,0.03333333333333333,238.08333333333334,0.016666666666666666,238.1,1.3,right,12,0.25313600001391023
test34,2,40,go,right,NA,0,weak,NA,NA,239.4,0.2,239.65,0.2,239.85,0.03333333333333333,239.88333333333333,0.016666666666666666,239.9,1.3,right,12,0.25149909997708164
test34,2,41,go,right,NA,0,weak,NA,NA,241.2,0.2,241.45,0.2,241.65,0.03333333333333333,241.68333333333334,0.016666666666666666,241.7,1.3,right,12,0.24303129999316297
test34,2,42,catch,NA,NA,0,catch,NA,NA,243.0,0.2,243.25,0.0,243.25,0.0,243.25,0.25,243.5,1.3,right,12,6.210000719875097e-05
test34,2,43,catch,NA,NA,0,catch,NA,NA,244.8,0.2,245.05,0.0,245.05,0.0,245.05,0.25,245.3,1.3,right,12,8.100000559352338e-05
test34,2,44,nogo,left,NA,1,weak,NA,NA,246.6,0.2,246.85,0.2,247.05,0.03333333333333333,247.08333333333334,0.016666666666666666,247.1,1.3,right,12,0.25017370001296513
test34,2,1,nogo,left,NA,1,weak,NA,NA,252.6,0.2,252.85,0.2,253.05,0.03333333333333333,253.08333333333334,0.016666666666666666,253.1,1.3,right,12,0.24616729997796938
test34,2,2,catch,NA,NA,0,catch,NA,NA,254.4,0.2,254.65,0.0,254.65,0.0,254.65,0.25,254.9,1.3,right,12,3.579998156055808e-05
test34,2,3,catch,NA,NA,0,catch,NA,NA,256.2,0.2,256.45,0.0,256.45,0.0,256.45,0.25,256.7,1.3,right,12,4.949999856762588e-05
test34,2,4,nogo,left,NA,1,weak,NA,NA,258.0,0.2,258.25,0.2,258.45,0.03333333333333333,258.48333333333335,0.016666666666666666,258.5,1.3,right,12,0.26161889999639243
test34,2,5,Rest,Rest,Rest,Rest,Rest,Rest,Rest,259.8,1.8,Rest,Rest,Rest,Rest,Rest,Rest,Rest,Rest,Rest,Rest,1.8
test34,2,6,nogo,left,NA,1,strong,NA,NA,261.6,0.2,261.85,0.016666666666666666,261.8666666666667,0.03333333333333333,261.9,0.2,262.1,1.3,right,12,0.024383500014664605
test34,2,7,catch,NA,NA,0,catch,NA,NA,263.4,0.2,263.65,0.0,263.65,0.0,263.65,0.25,263.9,1.3,right,12,8.289999095723033e-05
test34,2,8,nogo,left,NA,1,strong,NA,NA,265.2,0.2,265.45,0.016666666666666666,265.46666666666664,0.03333333333333333,265.5,0.2,265.7,1.3,right,12,0.01671699999133125
test34,2,9,nogo,left,NA,1,strong,NA,NA,267.0,0.2,267.25,0.016666666666666666,267.26666666666665,0.03333333333333333,267.3,0.2,267.5,1.3,right,12,0.01570940000237897
test34,2,10,nogo,left,NA,1,strong,NA,NA,268.8,0.2,269.05,0.016666666666666666,269.06666666666666,0.03333333333333333,269.1,0.2,269.3,1.3,right,12,0.020225000014761463
test34,2,11,nogo,left,NA,1,weak,NA,NA,270.6,0.2,270.85,0.2,271.05,0.03333333333333333,271.0833333333333,0.016666666666666666,271.1,1.3,right,12,0.2500525999930687
test34,2,12,nogo,left,NA,1,strong,NA,NA,272.4,0.2,272.65,0.016666666666666666,272.6666666666667,0.03333333333333333,272.7,0.2,272.9,1.3,right,12,0.02292660000966862
test34,2,13,go,right,NA,0,weak,NA,NA,274.2,0.2,274.45,0.2,274.65,0.03333333333333333,274.68333333333334,0.016666666666666666,274.7,1.3,right,12,0.24496300000464544
test34,2,14,nogo,left,NA,1,weak,NA,NA,276.0,0.2,276.25,0.2,276.45,0.03333333333333333,276.48333333333335,0.016666666666666666,276.5,1.3,right,12,0.25023659999715164
test34,2,15,nogo,left,NA,1,weak,NA,NA,277.8,0.2,278.05,0.2,278.25,0.03333333333333333,278.28333333333336,0.016666666666666666,278.3,1.3,right,12,0.2499965000024531
test34,2,16,go,right,NA,0,weak,NA,NA,279.6,0.2,279.85,0.2,280.05,0.03333333333333333,280.0833333333333,0.016666666666666666,280.1,1.3,right,12,0.25034369999775663
test34,2,17,nogo,left,NA,1,weak,NA,NA,281.4,0.2,281.65,0.2,281.85,0.03333333333333333,281.8833333333333,0.016666666666666666,281.9,1.3,right,12,0.23702390000107698
test34,2,18,nogo,left,NA,1,weak,NA,NA,283.2,0.2,283.45,0.2,283.65,0.03333333333333333,283.68333333333334,0.016666666666666666,283.7,1.3,right,12,0.2707589000056032
test34,2,19,go,right,NA,0,weak,NA,NA,285.0,0.2,285.25,0.2,285.45,0.03333333333333333,285.48333333333335,0.016666666666666666,285.5,1.3,right,12,0.2404761000070721
test34,2,20,nogo,left,NA,1,strong,NA,NA,286.8,0.2,287.05,0.016666666666666666,287.06666666666666,0.03333333333333333,287.1,0.2,287.3,1.3,right,12,0.031172399991191924
test34,2,21,nogo,left,NA,1,weak,NA,NA,288.6,0.2,288.85,0.2,289.05,0.03333333333333333,289.0833333333333,0.016666666666666666,289.1,1.3,right,12,0.2559244000003673
test34,2,22,Rest,Rest,Rest,Rest,Rest,Rest,Rest,290.4,1.8,Rest,Rest,Rest,Rest,Rest,Rest,Rest,Rest,Rest,Rest,1.8
test34,2,23,go,right,NA,0,weak,NA,NA,292.2,0.2,292.45,0.2,292.65,0.03333333333333333,292.68333333333334,0.016666666666666666,292.7,1.3,right,12,0.26450970000587404
test34,2,24,go,right,NA,0,weak,NA,NA,294.0,0.2,294.25,0.2,294.45,0.03333333333333333,294.48333333333335,0.016666666666666666,294.5,1.3,right,12,0.2475167000084184
test34,2,25,go,right,NA,0,weak,NA,NA,295.8,0.2,296.05,0.2,296.25,0.03333333333333333,296.28333333333336,0.016666666666666666,296.3,1.3,right,12,0.25678589998278767
test34,2,26,Rest,Rest,Rest,Rest,Rest,Rest,Rest,297.6,1.8,Rest,Rest,Rest,Rest,Rest,Rest,Rest,Rest,Rest,Rest,1.8
test34,2,27,nogo,left,NA,1,weak,NA,NA,299.4,0.2,299.65,0.2,299.85,0.03333333333333333,299.8833333333333,0.016666666666666666,299.9,1.3,right,12,0.24042659997940063
test34,2,28,go,right,NA,0,weak,NA,NA,301.2,0.2,301.45,0.2,301.65,0.03333333333333333,301.68333333333334,0.016666666666666666,301.7,1.3,right,12,0.25107710002339445
test34,2,29,nogo,left,NA,1,weak,NA,NA,303.0,0.2,303.25,0.2,303.45,0.03333333333333333,303.48333333333335,0.016666666666666666,303.5,1.3,right,12,0.26159420001204126
test34,2,30,nogo,left,NA,1,weak,NA,NA,304.8,0.2,305.05,0.2,305.25,0.03333333333333333,305.28333333333336,0.016666666666666666,305.3,1.3,right,12,0.2581648000050336
test34,2,31,nogo,left,NA,1,strong,NA,NA,306.6,0.2,306.85,0.016666666666666666,306.8666666666667,0.03333333333333333,306.9,0.2,307.1,1.3,right,12,0.021436199982417747
test34,2,32,nogo,left,NA,1,strong,NA,NA,308.4,0.2,308.65,0.016666666666666666,308.6666666666667,0.03333333333333333,308.7,0.2,308.9,1.3,right,12,0.02072749999933876
test34,2,33,Rest,Rest,Rest,Rest,Rest,Rest,Rest,310.2,1.8,Rest,Rest,Rest,Rest,Rest,Rest,Rest,Rest,Rest,Rest,1.8
test34,2,34,nogo,left,NA,1,strong,NA,NA,312.0,0.2,312.25,0.016666666666666666,312.26666666666665,0.03333333333333333,312.3,0.2,312.5,1.3,right,12,0.02074979999451898
test34,2,35,nogo,left,NA,1,strong,NA,NA,313.8,0.2,314.05,0.016666666666666666,314.06666666666666,0.03333333333333333,314.1,0.2,314.3,1.3,right,12,0.02173639999818988
test34,2,36,go,right,NA,0,weak,NA,NA,315.6,0.2,315.85,0.2,316.05,0.03333333333333333,316.0833333333333,0.016666666666666666,316.1,1.3,right,12,0.2527579999878071
test34,2,37,go,right,NA,0,weak,NA,NA,317.4,0.2,317.65,0.2,317.85,0.03333333333333333,317.8833333333333,0.016666666666666666,317.9,1.3,right,12,0.2549610999994911
test34,2,38,Rest,Rest,Rest,Rest,Rest,Rest,Rest,319.2,1.8,Rest,Rest,Rest,Rest,Rest,Rest,Rest,Rest,Rest,Rest,1.8
test34,2,39,catch,NA,NA,0,catch,NA,NA,321.0,0.2,321.25,0.0,321.25,0.0,321.25,0.25,321.5,1.3,right,12,0.00013329999637790024
test34,2,40,catch,NA,NA,0,catch,NA,NA,322.8,0.2,323.05,0.0,323.05,0.0,323.05,0.25,323.3,1.3,right,12,2.600002335384488e-05
test34,2,41,Rest,Rest,Rest,Rest,Rest,Rest,Rest,324.6,1.8,Rest,Rest,Rest,Rest,Rest,Rest,Rest,Rest,Rest,Rest,1.8
test34,2,42,catch,NA,NA,0,catch,NA,NA,326.4,0.2,326.65,0.0,326.65,0.0,326.65,0.25,326.9,1.3,right,12,3.860000288113952e-05
test34,2,43,Rest,Rest,Rest,Rest,Rest,Rest,Rest,328.2,5.4,Rest,Rest,Rest,Rest,Rest,Rest,Rest,Rest,Rest,Rest,5.4
