subid,session,run,trial,trial_type,side,response,correct,strength,response_time,cumulative_response_time,fixation_onset,fixation_dur,stim_onset,stim_dur,blank_onset,blank_dur,mask_onset,mask_dur,response_onset,response_dur,go_side,Staircase_stimulus,Presentation Duration
test_long_long,2,2,1,nogo,right,left,0,strong,1.334,1.68,0.0,0.2,0.25,0.016666666666666666,0.26666666666666666,0.03333333333333333,0.3,0.2,0.5,1.5,left,12,0.016534400027012452
test_long_long,2,2,2,go,left,left,1,strong,0.485,2.631,2.0,0.2,2.25,0.016666666666666666,2.2666666666666666,0.03333333333333333,2.3,0.2,2.5,1.5333333333333334,left,12,0.016679399996064603
test_long_long,2,2,3,nogo,right,left,0,weak,0.274,4.441,4.033333333333333,0.2,4.283333333333333,0.2,4.483333333333333,0.03333333333333333,4.516666666666667,0.016666666666666666,4.533333333333333,1.5,left,12,0.20169200000236742
test_long_long,2,2,4,catch,NA,left,1,catch,0.517,6.434,6.033333333333333,0.2,6.283333333333333,0.0,6.283333333333333,0.0,6.283333333333333,0.25,6.533333333333333,1.6333333333333333,left,12,6.520000169984996e-05
test_long_long,2,2,5,Rest,Rest,Rest,Rest,Rest,Rest,Rest,8.166666666666666,2.0,Rest,Rest,Rest,Rest,Rest,Rest,Rest,Rest,Rest,Rest,2.0
test_long_long,2,2,6,nogo,right,left,0,weak,0.269,10.301,10.166666666666666,0.2,10.416666666666666,0.2,10.616666666666667,0.03333333333333333,10.65,0.016666666666666666,10.666666666666666,1.6,left,12,0.19991479997406714
test_long_long,2,2,7,go,left,NA,0,weak,NA,NA,12.266666666666667,0.2,12.516666666666667,0.2,12.716666666666667,0.03333333333333333,12.75,0.016666666666666666,12.766666666666667,1.6666666666666667,left,12,0.1990096000081394
test_long_long,2,2,8,go,left,NA,0,strong,NA,NA,14.433333333333334,0.2,14.683333333333334,0.016666666666666666,14.7,0.03333333333333333,14.733333333333333,0.2,14.933333333333334,1.5666666666666667,left,12,0.015015799988759682
test_long_long,2,2,9,go,left,NA,0,strong,NA,NA,16.5,0.2,16.75,0.016666666666666666,16.766666666666666,0.03333333333333333,16.8,0.2,17.0,1.6333333333333333,left,12,0.015948399988701567
test_long_long,2,2,10,go,left,NA,0,strong,NA,NA,18.633333333333333,0.2,18.883333333333333,0.016666666666666666,18.9,0.03333333333333333,18.933333333333334,0.2,19.133333333333333,1.6333333333333333,left,12,0.016296699992381036
test_long_long,2,2,11,Rest,Rest,Rest,Rest,Rest,Rest,Rest,20.766666666666666,2.0,Rest,Rest,Rest,Rest,Rest,Rest,Rest,Rest,Rest,Rest,2.0
test_long_long,2,2,12,nogo,right,NA,1,weak,NA,NA,22.766666666666666,0.2,23.016666666666666,0.2,23.216666666666665,0.03333333333333333,23.25,0.016666666666666666,23.266666666666666,1.6333333333333333,left,12,0.1998600000224542
test_long_long,2,2,13,nogo,right,NA,1,weak,NA,NA,24.9,0.2,25.15,0.2,25.35,0.03333333333333333,25.383333333333333,0.016666666666666666,25.4,1.6666666666666667,left,12,0.19446359999710694
test_long_long,2,2,14,go,left,NA,0,weak,NA,NA,27.066666666666666,0.2,27.316666666666666,0.2,27.516666666666666,0.03333333333333333,27.55,0.016666666666666666,27.566666666666666,1.5666666666666667,left,12,0.20208930000080727
test_long_long,2,2,15,go,left,NA,0,strong,NA,NA,29.133333333333333,0.2,29.383333333333333,0.016666666666666666,29.4,0.03333333333333333,29.433333333333334,0.2,29.633333333333333,1.6333333333333333,left,12,0.015247400006046519
test_long_long,2,2,16,nogo,right,NA,1,weak,NA,NA,31.266666666666666,0.2,31.516666666666666,0.2,31.716666666666665,0.03333333333333333,31.75,0.016666666666666666,31.766666666666666,1.5666666666666667,left,12,0.21492649998981506
test_long_long,2,2,17,go,left,NA,0,strong,NA,NA,33.333333333333336,0.2,33.583333333333336,0.016666666666666666,33.6,0.03333333333333333,33.63333333333333,0.2,33.833333333333336,1.6666666666666667,left,12,0.018954600003780797
test_long_long,2,2,18,nogo,right,NA,1,strong,NA,NA,35.5,0.2,35.75,0.016666666666666666,35.766666666666666,0.03333333333333333,35.8,0.2,36.0,1.6333333333333333,left,12,0.012158400000771508
test_long_long,2,2,19,Rest,Rest,Rest,Rest,Rest,Rest,Rest,37.63333333333333,2.0,Rest,Rest,Rest,Rest,Rest,Rest,Rest,Rest,Rest,Rest,2.0
test_long_long,2,2,20,catch,NA,NA,0,catch,NA,NA,39.63333333333333,0.2,39.88333333333333,0.0,39.88333333333333,0.0,39.88333333333333,0.25,40.13333333333333,1.6666666666666667,left,12,6.009999196976423e-05
test_long_long,2,2,21,nogo,right,NA,1,strong,NA,NA,41.8,0.2,42.05,0.016666666666666666,42.06666666666667,0.03333333333333333,42.1,0.2,42.3,1.6666666666666667,left,12,0.016521799989277497
test_long_long,2,2,22,Rest,Rest,Rest,Rest,Rest,Rest,Rest,43.96666666666667,2.0,Rest,Rest,Rest,Rest,Rest,Rest,Rest,Rest,Rest,Rest,2.0
test_long_long,2,2,23,nogo,right,NA,1,strong,NA,NA,45.96666666666667,0.2,46.21666666666667,0.016666666666666666,46.233333333333334,0.03333333333333333,46.266666666666666,0.2,46.46666666666667,1.5666666666666667,left,12,0.01805199999944307
test_long_long,2,2,24,nogo,right,NA,1,strong,NA,NA,48.03333333333333,0.2,48.28333333333333,0.016666666666666666,48.3,0.03333333333333333,48.333333333333336,0.2,48.53333333333333,1.5333333333333334,left,12,0.017389000015100464
test_long_long,2,2,25,nogo,right,NA,1,strong,NA,NA,50.06666666666667,0.2,50.31666666666667,0.016666666666666666,50.333333333333336,0.03333333333333333,50.36666666666667,0.2,50.56666666666667,1.5,left,12,0.018039399990811944
test_long_long,2,2,26,nogo,right,NA,1,weak,NA,NA,52.06666666666667,0.2,52.31666666666667,0.2,52.516666666666666,0.03333333333333333,52.55,0.016666666666666666,52.56666666666667,1.5,left,12,0.1995366000046488
test_long_long,2,2,27,Rest,Rest,Rest,Rest,Rest,Rest,Rest,54.06666666666667,2.0,Rest,Rest,Rest,Rest,Rest,Rest,Rest,Rest,Rest,Rest,2.0
test_long_long,2,2,28,go,left,NA,0,weak,NA,NA,56.06666666666667,0.2,56.31666666666667,0.2,56.516666666666666,0.03333333333333333,56.55,0.016666666666666666,56.56666666666667,1.6333333333333333,left,12,0.2057201999996323
test_long_long,2,2,29,nogo,right,NA,1,weak,NA,NA,58.2,0.2,58.45,0.2,58.65,0.03333333333333333,58.68333333333333,0.016666666666666666,58.7,1.6666666666666667,left,12,0.20222040000953712
test_long_long,2,2,30,Rest,Rest,Rest,Rest,Rest,Rest,Rest,60.36666666666667,2.0,Rest,Rest,Rest,Rest,Rest,Rest,Rest,Rest,Rest,Rest,2.0
test_long_long,2,2,31,nogo,right,NA,1,weak,NA,NA,62.36666666666667,0.2,62.61666666666667,0.2,62.81666666666667,0.03333333333333333,62.85,0.016666666666666666,62.86666666666667,1.6333333333333333,left,12,0.20049790001939982
test_long_long,2,2,32,nogo,right,NA,1,strong,NA,NA,64.5,0.2,64.75,0.016666666666666666,64.76666666666667,0.03333333333333333,64.8,0.2,65.0,1.6666666666666667,left,12,0.017468600010033697
test_long_long,2,2,33,Rest,Rest,Rest,Rest,Rest,Rest,Rest,66.66666666666667,2.0,Rest,Rest,Rest,Rest,Rest,Rest,Rest,Rest,Rest,Rest,2.0
test_long_long,2,2,34,go,left,NA,0,weak,NA,NA,68.66666666666667,0.2,68.91666666666667,0.2,69.11666666666666,0.03333333333333333,69.15,0.016666666666666666,69.16666666666667,1.6,left,12,0.1996392000000924
test_long_long,2,2,35,nogo,right,NA,1,strong,NA,NA,70.76666666666667,0.2,71.01666666666667,0.016666666666666666,71.03333333333333,0.03333333333333333,71.06666666666666,0.2,71.26666666666667,1.5,left,12,0.020165299996733665
test_long_long,2,2,36,Rest,Rest,Rest,Rest,Rest,Rest,Rest,72.76666666666667,2.0,Rest,Rest,Rest,Rest,Rest,Rest,Rest,Rest,Rest,Rest,2.0
test_long_long,2,2,37,go,left,NA,0,weak,NA,NA,74.76666666666667,0.2,75.01666666666667,0.2,75.21666666666667,0.03333333333333333,75.25,0.016666666666666666,75.26666666666667,1.6,left,12,0.19713110002339818
test_long_long,2,2,38,go,left,NA,0,weak,NA,NA,76.86666666666666,0.2,77.11666666666666,0.2,77.31666666666666,0.03333333333333333,77.35,0.016666666666666666,77.36666666666666,1.6333333333333333,left,12,0.19958700001006946
test_long_long,2,2,39,Rest,Rest,Rest,Rest,Rest,Rest,Rest,79.0,2.0,Rest,Rest,Rest,Rest,Rest,Rest,Rest,Rest,Rest,Rest,2.0
test_long_long,2,2,40,go,left,NA,0,strong,NA,NA,81.0,0.2,81.25,0.016666666666666666,81.26666666666667,0.03333333333333333,81.3,0.2,81.5,1.6666666666666667,left,12,0.01683380000758916
test_long_long,2,2,41,catch,NA,NA,0,catch,NA,NA,83.16666666666667,0.2,83.41666666666667,0.0,83.41666666666667,0.0,83.41666666666667,0.25,83.66666666666667,1.5333333333333334,left,12,6.079999729990959e-05
test_long_long,2,2,42,go,left,NA,0,weak,NA,NA,85.2,0.2,85.45,0.2,85.65,0.03333333333333333,85.68333333333334,0.016666666666666666,85.7,1.5,left,12,0.1968046999827493
test_long_long,2,2,43,go,left,NA,0,weak,NA,NA,87.2,0.2,87.45,0.2,87.65,0.03333333333333333,87.68333333333334,0.016666666666666666,87.7,1.5,left,12,0.20156539999879897
test_long_long,2,2,44,catch,NA,NA,0,catch,NA,NA,89.2,0.2,89.45,0.0,89.45,0.0,89.45,0.25,89.7,1.5,left,12,2.0899984519928694e-05
test_long_long,2,2,45,go,left,NA,0,strong,NA,NA,91.2,0.2,91.45,0.016666666666666666,91.46666666666667,0.03333333333333333,91.5,0.2,91.7,1.5333333333333334,left,12,0.01529149999259971
test_long_long,2,2,46,Rest,Rest,Rest,Rest,Rest,Rest,Rest,93.23333333333333,2.0,Rest,Rest,Rest,Rest,Rest,Rest,Rest,Rest,Rest,Rest,2.0
test_long_long,2,2,1,nogo,right,NA,1,strong,NA,NA,98.43333333333334,0.2,98.68333333333334,0.016666666666666666,98.7,0.03333333333333333,98.73333333333333,0.2,98.93333333333334,1.5,left,12,0.0173007000121288
test_long_long,2,2,2,go,left,NA,0,strong,NA,NA,100.43333333333334,0.2,100.68333333333334,0.016666666666666666,100.7,0.03333333333333333,100.73333333333333,0.2,100.93333333333334,1.5666666666666667,left,12,0.016889200021978468
test_long_long,2,2,3,nogo,right,NA,1,strong,NA,NA,102.5,0.2,102.75,0.016666666666666666,102.76666666666667,0.03333333333333333,102.8,0.2,103.0,1.5,left,12,0.016787500004284084
test_long_long,2,2,4,go,left,NA,0,strong,NA,NA,104.5,0.2,104.75,0.016666666666666666,104.76666666666667,0.03333333333333333,104.8,0.2,105.0,1.6,left,12,0.01744570001028478
test_long_long,2,2,5,catch,NA,NA,0,catch,NA,NA,106.6,0.2,106.85,0.0,106.85,0.0,106.85,0.25,107.1,1.6,left,12,6.2700011767447e-05
test_long_long,2,2,6,Rest,Rest,Rest,Rest,Rest,Rest,Rest,108.7,2.0,Rest,Rest,Rest,Rest,Rest,Rest,Rest,Rest,Rest,Rest,2.0
test_long_long,2,2,7,go,left,NA,0,weak,NA,NA,110.7,0.2,110.95,0.2,111.15,0.03333333333333333,111.18333333333334,0.016666666666666666,111.2,1.5333333333333334,left,12,0.20071539998752996
test_long_long,2,2,8,catch,NA,NA,0,catch,NA,NA,112.73333333333333,0.2,112.98333333333333,0.0,112.98333333333333,0.0,112.98333333333333,0.25,113.23333333333333,1.6333333333333333,left,12,8.620001608505845e-05
test_long_long,2,2,9,go,left,NA,0,weak,NA,NA,114.86666666666666,0.2,115.11666666666666,0.2,115.31666666666666,0.03333333333333333,115.35,0.016666666666666666,115.36666666666666,1.5666666666666667,left,12,0.1995022000046447
test_long_long,2,2,10,go,left,NA,0,weak,NA,NA,116.93333333333334,0.2,117.18333333333334,0.2,117.38333333333334,0.03333333333333333,117.41666666666667,0.016666666666666666,117.43333333333334,1.6,left,12,0.1999239000142552
test_long_long,2,2,11,nogo,right,NA,1,weak,NA,NA,119.03333333333333,0.2,119.28333333333333,0.2,119.48333333333333,0.03333333333333333,119.51666666666667,0.016666666666666666,119.53333333333333,1.6,left,12,0.19904420000966638
test_long_long,2,2,12,nogo,right,NA,1,strong,NA,NA,121.13333333333334,0.2,121.38333333333334,0.016666666666666666,121.4,0.03333333333333333,121.43333333333334,0.2,121.63333333333334,1.6,left,12,0.017504000017652288
test_long_long,2,2,13,go,left,NA,0,strong,NA,NA,123.23333333333333,0.2,123.48333333333333,0.016666666666666666,123.5,0.03333333333333333,123.53333333333333,0.2,123.73333333333333,1.6,left,12,0.014966899994760752
test_long_long,2,2,14,catch,NA,NA,0,catch,NA,NA,125.33333333333333,0.2,125.58333333333333,0.0,125.58333333333333,0.0,125.58333333333333,0.25,125.83333333333333,1.5666666666666667,left,12,5.5800017435103655e-05
test_long_long,2,2,15,go,left,NA,0,strong,NA,NA,127.4,0.2,127.65,0.016666666666666666,127.66666666666667,0.03333333333333333,127.7,0.2,127.9,1.5,left,12,0.016227399988565594
test_long_long,2,2,16,go,left,NA,0,strong,NA,NA,129.4,0.2,129.65,0.016666666666666666,129.66666666666666,0.03333333333333333,129.7,0.2,129.9,1.6,left,12,0.017285600013565272
test_long_long,2,2,17,go,left,NA,0,strong,NA,NA,131.5,0.2,131.75,0.016666666666666666,131.76666666666668,0.03333333333333333,131.8,0.2,132.0,1.6,left,12,0.018750699993688613
test_long_long,2,2,18,Rest,Rest,Rest,Rest,Rest,Rest,Rest,133.6,2.0,Rest,Rest,Rest,Rest,Rest,Rest,Rest,Rest,Rest,Rest,2.0
test_long_long,2,2,19,go,left,NA,0,weak,NA,NA,135.6,0.2,135.85,0.2,136.05,0.03333333333333333,136.08333333333334,0.016666666666666666,136.1,1.5333333333333334,left,12,0.20106630001100712
test_long_long,2,2,20,Rest,Rest,Rest,Rest,Rest,Rest,Rest,137.63333333333333,2.0,Rest,Rest,Rest,Rest,Rest,Rest,Rest,Rest,Rest,Rest,2.0
test_long_long,2,2,21,nogo,right,NA,1,weak,NA,NA,139.63333333333333,0.2,139.88333333333333,0.2,140.08333333333334,0.03333333333333333,140.11666666666667,0.016666666666666666,140.13333333333333,1.6666666666666667,left,12,0.20111439999891445
test_long_long,2,2,22,nogo,right,NA,1,strong,NA,NA,141.8,0.2,142.05,0.016666666666666666,142.06666666666666,0.03333333333333333,142.1,0.2,142.3,1.5333333333333334,left,12,0.018549300002632663
test_long_long,2,2,23,nogo,right,NA,1,strong,NA,NA,143.83333333333334,0.2,144.08333333333334,0.016666666666666666,144.1,0.03333333333333333,144.13333333333333,0.2,144.33333333333334,1.5,left,12,0.01732000001356937
test_long_long,2,2,24,nogo,right,NA,1,weak,NA,NA,145.83333333333334,0.2,146.08333333333334,0.2,146.28333333333333,0.03333333333333333,146.31666666666666,0.016666666666666666,146.33333333333334,1.6666666666666667,left,12,0.2008289999794215
test_long_long,2,2,25,Rest,Rest,Rest,Rest,Rest,Rest,Rest,148.0,2.0,Rest,Rest,Rest,Rest,Rest,Rest,Rest,Rest,Rest,Rest,2.0
test_long_long,2,2,26,go,left,NA,0,weak,NA,NA,150.0,0.2,150.25,0.2,150.45,0.03333333333333333,150.48333333333332,0.016666666666666666,150.5,1.5333333333333334,left,12,0.19296730001224205
test_long_long,2,2,27,Rest,Rest,Rest,Rest,Rest,Rest,Rest,152.03333333333333,2.0,Rest,Rest,Rest,Rest,Rest,Rest,Rest,Rest,Rest,Rest,2.0
test_long_long,2,2,28,nogo,right,NA,1,weak,NA,NA,154.03333333333333,0.2,154.28333333333333,0.2,154.48333333333332,0.03333333333333333,154.51666666666668,0.016666666666666666,154.53333333333333,1.6666666666666667,left,12,0.19881299999542534
test_long_long,2,2,29,go,left,NA,0,weak,NA,NA,156.2,0.2,156.45,0.2,156.65,0.03333333333333333,156.68333333333334,0.016666666666666666,156.7,1.5666666666666667,left,12,0.20090749999508262
test_long_long,2,2,30,Rest,Rest,Rest,Rest,Rest,Rest,Rest,158.26666666666668,2.0,Rest,Rest,Rest,Rest,Rest,Rest,Rest,Rest,Rest,Rest,2.0
test_long_long,2,2,31,go,left,NA,0,weak,NA,NA,160.26666666666668,0.2,160.51666666666668,0.2,160.71666666666667,0.03333333333333333,160.75,0.016666666666666666,160.76666666666668,1.5666666666666667,left,12,0.19994409999344498
test_long_long,2,2,32,nogo,right,NA,1,strong,NA,NA,162.33333333333334,0.2,162.58333333333334,0.016666666666666666,162.6,0.03333333333333333,162.63333333333333,0.2,162.83333333333334,1.6666666666666667,left,12,0.01761179999448359
test_long_long,2,2,33,Rest,Rest,Rest,Rest,Rest,Rest,Rest,164.5,2.0,Rest,Rest,Rest,Rest,Rest,Rest,Rest,Rest,Rest,Rest,2.0
test_long_long,2,2,34,go,left,NA,0,strong,NA,NA,166.5,0.2,166.75,0.016666666666666666,166.76666666666668,0.03333333333333333,166.8,0.2,167.0,1.5,left,12,0.016587700025411323
test_long_long,2,2,35,nogo,right,NA,1,weak,NA,NA,168.5,0.2,168.75,0.2,168.95,0.03333333333333333,168.98333333333332,0.016666666666666666,169.0,1.5666666666666667,left,12,0.2047374999965541
test_long_long,2,2,36,catch,NA,NA,0,catch,NA,NA,170.56666666666666,0.2,170.81666666666666,0.0,170.81666666666666,0.0,170.81666666666666,0.25,171.06666666666666,1.6333333333333333,left,12,6.469999789260328e-05
test_long_long,2,2,37,nogo,right,NA,1,weak,NA,NA,172.7,0.2,172.95,0.2,173.15,0.03333333333333333,173.18333333333334,0.016666666666666666,173.2,1.6666666666666667,left,12,0.19354330000351183
test_long_long,2,2,38,nogo,right,NA,1,weak,NA,NA,174.86666666666667,0.2,175.11666666666667,0.2,175.31666666666666,0.03333333333333333,175.35,0.016666666666666666,175.36666666666667,1.6,left,12,0.19459490000735968
test_long_long,2,2,39,go,left,NA,0,weak,NA,NA,176.96666666666667,0.2,177.21666666666667,0.2,177.41666666666666,0.03333333333333333,177.45,0.016666666666666666,177.46666666666667,1.6333333333333333,left,12,0.2004325999878347
test_long_long,2,2,40,go,left,NA,0,strong,NA,NA,179.1,0.2,179.35,0.016666666666666666,179.36666666666667,0.03333333333333333,179.4,0.2,179.6,1.5666666666666667,left,12,0.01662529999157414
test_long_long,2,2,41,nogo,right,NA,1,strong,NA,NA,181.16666666666666,0.2,181.41666666666666,0.016666666666666666,181.43333333333334,0.03333333333333333,181.46666666666667,0.2,181.66666666666666,1.6333333333333333,left,12,0.016510399989783764
test_long_long,2,2,42,nogo,right,NA,1,weak,NA,NA,183.3,0.2,183.55,0.2,183.75,0.03333333333333333,183.78333333333333,0.016666666666666666,183.8,1.6666666666666667,left,12,0.20121109997853637
test_long_long,2,2,43,Rest,Rest,Rest,Rest,Rest,Rest,Rest,185.46666666666667,6.0,Rest,Rest,Rest,Rest,Rest,Rest,Rest,Rest,Rest,Rest,6.0
test_long_long,2,2,44,nogo,right,NA,1,strong,NA,NA,191.46666666666667,0.2,191.71666666666667,0.016666666666666666,191.73333333333332,0.03333333333333333,191.76666666666668,0.2,191.96666666666667,1.6333333333333333,left,12,0.01593160000629723
test_long_long,2,2,1,go,left,NA,0,weak,NA,NA,195.76666666666668,0.2,196.01666666666668,0.2,196.21666666666667,0.03333333333333333,196.25,0.016666666666666666,196.26666666666668,1.5333333333333334,left,12,0.19817409999086522
test_long_long,2,2,2,go,left,NA,0,strong,NA,NA,197.8,0.2,198.05,0.016666666666666666,198.06666666666666,0.03333333333333333,198.1,0.2,198.3,1.5333333333333334,left,12,0.016978200001176447
test_long_long,2,2,3,nogo,right,NA,1,weak,NA,NA,199.83333333333334,0.2,200.08333333333334,0.2,200.28333333333333,0.03333333333333333,200.31666666666666,0.016666666666666666,200.33333333333334,1.5,left,12,0.20083210000302643
test_long_long,2,2,4,nogo,right,NA,1,weak,NA,NA,201.83333333333334,0.2,202.08333333333334,0.2,202.28333333333333,0.03333333333333333,202.31666666666666,0.016666666666666666,202.33333333333334,1.5666666666666667,left,12,0.19984149999800138
test_long_long,2,2,5,nogo,right,NA,1,strong,NA,NA,203.9,0.2,204.15,0.016666666666666666,204.16666666666666,0.03333333333333333,204.2,0.2,204.4,1.6,left,12,0.01712140001473017
test_long_long,2,2,6,Rest,Rest,Rest,Rest,Rest,Rest,Rest,206.0,2.0,Rest,Rest,Rest,Rest,Rest,Rest,Rest,Rest,Rest,Rest,2.0
test_long_long,2,2,7,nogo,right,NA,1,weak,NA,NA,208.0,0.2,208.25,0.2,208.45,0.03333333333333333,208.48333333333332,0.016666666666666666,208.5,1.5333333333333334,left,12,0.1998017999867443
test_long_long,2,2,8,Rest,Rest,Rest,Rest,Rest,Rest,Rest,210.03333333333333,2.0,Rest,Rest,Rest,Rest,Rest,Rest,Rest,Rest,Rest,Rest,2.0
test_long_long,2,2,9,go,left,NA,0,strong,NA,NA,212.03333333333333,0.2,212.28333333333333,0.016666666666666666,212.3,0.03333333333333333,212.33333333333334,0.2,212.53333333333333,1.6666666666666667,left,12,0.016091400000732392
test_long_long,2,2,10,go,left,NA,0,weak,NA,NA,214.2,0.2,214.45,0.2,214.65,0.03333333333333333,214.68333333333334,0.016666666666666666,214.7,1.6,left,12,0.19855010000173934
test_long_long,2,2,11,go,left,NA,0,weak,NA,NA,216.3,0.2,216.55,0.2,216.75,0.03333333333333333,216.78333333333333,0.016666666666666666,216.8,1.5333333333333334,left,12,0.20069210001383908
test_long_long,2,2,12,Rest,Rest,Rest,Rest,Rest,Rest,Rest,218.33333333333334,6.0,Rest,Rest,Rest,Rest,Rest,Rest,Rest,Rest,Rest,Rest,6.0
test_long_long,2,2,13,go,left,NA,0,strong,NA,NA,224.33333333333334,0.2,224.58333333333334,0.016666666666666666,224.6,0.03333333333333333,224.63333333333333,0.2,224.83333333333334,1.6,left,12,0.012955699989106506
test_long_long,2,2,14,Rest,Rest,Rest,Rest,Rest,Rest,Rest,226.43333333333334,2.0,Rest,Rest,Rest,Rest,Rest,Rest,Rest,Rest,Rest,Rest,2.0
test_long_long,2,2,15,go,left,NA,0,weak,NA,NA,228.43333333333334,0.2,228.68333333333334,0.2,228.88333333333333,0.03333333333333333,228.91666666666666,0.016666666666666666,228.93333333333334,1.5333333333333334,left,12,0.20077619998482987
test_long_long,2,2,16,nogo,right,NA,1,strong,NA,NA,230.46666666666667,0.2,230.71666666666667,0.016666666666666666,230.73333333333332,0.03333333333333333,230.76666666666668,0.2,230.96666666666667,1.6666666666666667,left,12,0.017341400001896545
test_long_long,2,2,17,nogo,right,NA,1,weak,NA,NA,232.63333333333333,0.2,232.88333333333333,0.2,233.08333333333334,0.03333333333333333,233.11666666666667,0.016666666666666666,233.13333333333333,1.5666666666666667,left,12,0.21592109999619424
test_long_long,2,2,18,go,left,NA,0,weak,NA,NA,234.7,0.2,234.95,0.2,235.15,0.03333333333333333,235.18333333333334,0.016666666666666666,235.2,1.6666666666666667,left,12,0.20036980000440963
test_long_long,2,2,19,go,left,NA,0,weak,NA,NA,236.86666666666667,0.2,237.11666666666667,0.2,237.31666666666666,0.03333333333333333,237.35,0.016666666666666666,237.36666666666667,1.6666666666666667,left,12,0.20453819999238476
test_long_long,2,2,20,Rest,Rest,Rest,Rest,Rest,Rest,Rest,239.03333333333333,2.0,Rest,Rest,Rest,Rest,Rest,Rest,Rest,Rest,Rest,Rest,2.0
test_long_long,2,2,21,nogo,right,NA,1,weak,NA,NA,241.03333333333333,0.2,241.28333333333333,0.2,241.48333333333332,0.03333333333333333,241.51666666666668,0.016666666666666666,241.53333333333333,1.5333333333333334,left,12,0.20089919999008998
test_long_long,2,2,22,nogo,right,NA,1,weak,NA,NA,243.06666666666666,0.2,243.31666666666666,0.2,243.51666666666668,0.03333333333333333,243.55,0.016666666666666666,243.56666666666666,1.5,left,12,0.20046550000552088
test_long_long,2,2,23,go,left,NA,0,weak,NA,NA,245.06666666666666,0.2,245.31666666666666,0.2,245.51666666666668,0.03333333333333333,245.55,0.016666666666666666,245.56666666666666,1.5,left,12,0.20029790000990033
test_long_long,2,2,24,nogo,right,NA,1,weak,NA,NA,247.06666666666666,0.2,247.31666666666666,0.2,247.51666666666668,0.03333333333333333,247.55,0.016666666666666666,247.56666666666666,1.5333333333333334,left,12,0.19531469998764805
test_long_long,2,2,25,go,left,NA,0,strong,NA,NA,249.1,0.2,249.35,0.016666666666666666,249.36666666666667,0.03333333333333333,249.4,0.2,249.6,1.6333333333333333,left,12,0.01689469997654669
test_long_long,2,2,26,go,left,NA,0,weak,NA,NA,251.23333333333332,0.2,251.48333333333332,0.2,251.68333333333334,0.03333333333333333,251.71666666666667,0.016666666666666666,251.73333333333332,1.6666666666666667,left,12,0.231305399996927
test_long_long,2,2,27,nogo,right,NA,1,strong,NA,NA,253.4,0.2,253.65,0.016666666666666666,253.66666666666666,0.03333333333333333,253.7,0.2,253.9,1.6,left,12,0.019385699997656047
test_long_long,2,2,28,go,left,NA,0,strong,NA,NA,255.5,0.2,255.75,0.016666666666666666,255.76666666666668,0.03333333333333333,255.8,0.2,256.0,1.5333333333333334,left,12,0.017272900004172698
test_long_long,2,2,29,Rest,Rest,Rest,Rest,Rest,Rest,Rest,257.53333333333336,2.0,Rest,Rest,Rest,Rest,Rest,Rest,Rest,Rest,Rest,Rest,2.0
test_long_long,2,2,30,nogo,right,NA,1,strong,NA,NA,259.53333333333336,0.2,259.78333333333336,0.016666666666666666,259.8,0.03333333333333333,259.8333333333333,0.2,260.03333333333336,1.5,left,12,0.01728890000958927
test_long_long,2,2,31,nogo,right,NA,1,strong,NA,NA,261.53333333333336,0.2,261.78333333333336,0.016666666666666666,261.8,0.03333333333333333,261.8333333333333,0.2,262.03333333333336,1.5666666666666667,left,12,0.01565459999255836
test_long_long,2,2,32,go,left,NA,0,strong,NA,NA,263.6,0.2,263.85,0.016666666666666666,263.8666666666667,0.03333333333333333,263.9,0.2,264.1,1.5333333333333334,left,12,0.01664709998294711
test_long_long,2,2,33,Rest,Rest,Rest,Rest,Rest,Rest,Rest,265.6333333333333,2.0,Rest,Rest,Rest,Rest,Rest,Rest,Rest,Rest,Rest,Rest,2.0
test_long_long,2,2,34,catch,NA,NA,0,catch,NA,NA,267.6333333333333,0.2,267.8833333333333,0.0,267.8833333333333,0.0,267.8833333333333,0.25,268.1333333333333,1.6333333333333333,left,12,3.7299992982298136e-05
test_long_long,2,2,35,Rest,Rest,Rest,Rest,Rest,Rest,Rest,269.76666666666665,2.0,Rest,Rest,Rest,Rest,Rest,Rest,Rest,Rest,Rest,Rest,2.0
test_long_long,2,2,36,nogo,right,NA,1,strong,NA,NA,271.76666666666665,0.2,272.01666666666665,0.016666666666666666,272.03333333333336,0.03333333333333333,272.06666666666666,0.2,272.26666666666665,1.6333333333333333,left,12,0.01680290000513196
test_long_long,2,2,37,nogo,right,NA,1,strong,NA,NA,273.9,0.2,274.15,0.016666666666666666,274.1666666666667,0.03333333333333333,274.2,0.2,274.4,1.5333333333333334,left,12,0.019422799989115447
test_long_long,2,2,38,go,left,NA,0,strong,NA,NA,275.93333333333334,0.2,276.18333333333334,0.016666666666666666,276.2,0.03333333333333333,276.23333333333335,0.2,276.43333333333334,1.5666666666666667,left,12,0.01777480001328513
test_long_long,2,2,39,go,left,NA,0,strong,NA,NA,278.0,0.2,278.25,0.016666666666666666,278.26666666666665,0.03333333333333333,278.3,0.2,278.5,1.6666666666666667,left,12,0.01655859997845255
test_long_long,2,2,40,nogo,right,NA,1,strong,NA,NA,280.1666666666667,0.2,280.4166666666667,0.016666666666666666,280.43333333333334,0.03333333333333333,280.46666666666664,0.2,280.6666666666667,1.6,left,12,0.016560399992158636
test_long_long,2,2,41,catch,NA,NA,0,catch,NA,NA,282.26666666666665,0.2,282.51666666666665,0.0,282.51666666666665,0.0,282.51666666666665,0.25,282.76666666666665,1.5666666666666667,left,12,7.490001735277474e-05
test_long_long,2,2,42,nogo,right,NA,1,weak,NA,NA,284.3333333333333,0.2,284.5833333333333,0.2,284.78333333333336,0.03333333333333333,284.81666666666666,0.016666666666666666,284.8333333333333,1.5333333333333334,left,12,0.20349369998439215
test_long_long,2,2,43,catch,NA,NA,0,catch,NA,NA,286.3666666666667,0.2,286.6166666666667,0.0,286.6166666666667,0.0,286.6166666666667,0.25,286.8666666666667,1.6,left,12,3.99000127799809e-05
test_long_long,2,2,44,catch,NA,NA,0,catch,NA,NA,288.46666666666664,0.2,288.71666666666664,0.0,288.71666666666664,0.0,288.71666666666664,0.25,288.96666666666664,1.5666666666666667,left,12,6.329998723231256e-05
test_long_long,2,2,1,go,left,NA,0,weak,NA,NA,294.1333333333333,0.2,294.3833333333333,0.2,294.5833333333333,0.03333333333333333,294.6166666666667,0.016666666666666666,294.6333333333333,1.6666666666666667,left,12,0.20565609997720458
test_long_long,2,2,2,go,left,NA,0,weak,NA,NA,296.3,0.2,296.55,0.2,296.75,0.03333333333333333,296.78333333333336,0.016666666666666666,296.8,1.6333333333333333,left,12,0.2005764000059571
test_long_long,2,2,3,go,left,NA,0,strong,NA,NA,298.43333333333334,0.2,298.68333333333334,0.016666666666666666,298.7,0.03333333333333333,298.73333333333335,0.2,298.93333333333334,1.6333333333333333,left,12,0.01639390000491403
test_long_long,2,2,4,Rest,Rest,Rest,Rest,Rest,Rest,Rest,300.56666666666666,2.0,Rest,Rest,Rest,Rest,Rest,Rest,Rest,Rest,Rest,Rest,2.0
test_long_long,2,2,5,go,left,NA,0,strong,NA,NA,302.56666666666666,0.2,302.81666666666666,0.016666666666666666,302.8333333333333,0.03333333333333333,302.8666666666667,0.2,303.06666666666666,1.5,left,12,0.016475799988256767
test_long_long,2,2,6,nogo,right,NA,1,weak,NA,NA,304.56666666666666,0.2,304.81666666666666,0.2,305.01666666666665,0.03333333333333333,305.05,0.016666666666666666,305.06666666666666,1.6,left,12,0.200229699985357
test_long_long,2,2,7,go,left,NA,0,weak,NA,NA,306.6666666666667,0.2,306.9166666666667,0.2,307.1166666666667,0.03333333333333333,307.15,0.016666666666666666,307.1666666666667,1.5,left,12,0.2016122000059113
test_long_long,2,2,8,Rest,Rest,Rest,Rest,Rest,Rest,Rest,308.6666666666667,2.0,Rest,Rest,Rest,Rest,Rest,Rest,Rest,Rest,Rest,Rest,2.0
test_long_long,2,2,9,nogo,right,NA,1,strong,NA,NA,310.6666666666667,0.2,310.9166666666667,0.016666666666666666,310.93333333333334,0.03333333333333333,310.96666666666664,0.2,311.1666666666667,1.6,left,12,0.020753899996634573
test_long_long,2,2,10,go,left,NA,0,strong,NA,NA,312.76666666666665,0.2,313.01666666666665,0.016666666666666666,313.03333333333336,0.03333333333333333,313.06666666666666,0.2,313.26666666666665,1.6333333333333333,left,12,0.016009700018912554
test_long_long,2,2,11,nogo,right,NA,1,weak,NA,NA,314.9,0.2,315.15,0.2,315.35,0.03333333333333333,315.3833333333333,0.016666666666666666,315.4,1.5,left,12,0.20070180000038818
test_long_long,2,2,12,nogo,right,NA,1,weak,NA,NA,316.9,0.2,317.15,0.2,317.35,0.03333333333333333,317.3833333333333,0.016666666666666666,317.4,1.6,left,12,0.19899859998258762
test_long_long,2,2,13,nogo,right,NA,1,strong,NA,NA,319.0,0.2,319.25,0.016666666666666666,319.26666666666665,0.03333333333333333,319.3,0.2,319.5,1.5333333333333334,left,12,0.017847999988589436
test_long_long,2,2,14,Rest,Rest,Rest,Rest,Rest,Rest,Rest,321.03333333333336,2.0,Rest,Rest,Rest,Rest,Rest,Rest,Rest,Rest,Rest,Rest,2.0
test_long_long,2,2,15,go,left,NA,0,weak,NA,NA,323.03333333333336,0.2,323.28333333333336,0.2,323.48333333333335,0.03333333333333333,323.51666666666665,0.016666666666666666,323.53333333333336,1.5666666666666667,left,12,0.20000050001544878
test_long_long,2,2,16,nogo,right,NA,1,weak,NA,NA,325.1,0.2,325.35,0.2,325.55,0.03333333333333333,325.5833333333333,0.016666666666666666,325.6,1.5666666666666667,left,12,0.19992099999217317
test_long_long,2,2,17,Rest,Rest,Rest,Rest,Rest,Rest,Rest,327.1666666666667,2.0,Rest,Rest,Rest,Rest,Rest,Rest,Rest,Rest,Rest,Rest,2.0
test_long_long,2,2,18,nogo,right,NA,1,weak,NA,NA,329.1666666666667,0.2,329.4166666666667,0.2,329.6166666666667,0.03333333333333333,329.65,0.016666666666666666,329.6666666666667,1.6,left,12,0.19727820000844076
test_long_long,2,2,19,go,left,NA,0,strong,NA,NA,331.26666666666665,0.2,331.51666666666665,0.016666666666666666,331.53333333333336,0.03333333333333333,331.56666666666666,0.2,331.76666666666665,1.6333333333333333,left,12,0.016931099991779774
test_long_long,2,2,20,go,left,NA,0,strong,NA,NA,333.4,0.2,333.65,0.016666666666666666,333.6666666666667,0.03333333333333333,333.7,0.2,333.9,1.6,left,12,0.017156500020064414
test_long_long,2,2,21,go,left,NA,0,strong,NA,NA,335.5,0.2,335.75,0.016666666666666666,335.76666666666665,0.03333333333333333,335.8,0.2,336.0,1.5666666666666667,left,12,0.018838999996660277
test_long_long,2,2,22,nogo,right,NA,1,strong,NA,NA,337.56666666666666,0.2,337.81666666666666,0.016666666666666666,337.8333333333333,0.03333333333333333,337.8666666666667,0.2,338.06666666666666,1.5333333333333334,left,12,0.01742679998278618
test_long_long,2,2,23,nogo,right,NA,1,strong,NA,NA,339.6,0.2,339.85,0.016666666666666666,339.8666666666667,0.03333333333333333,339.9,0.2,340.1,1.6666666666666667,left,12,0.016965199989499524
test_long_long,2,2,24,nogo,right,NA,1,strong,NA,NA,341.76666666666665,0.2,342.01666666666665,0.016666666666666666,342.03333333333336,0.03333333333333333,342.06666666666666,0.2,342.26666666666665,1.6333333333333333,left,12,0.014357000007294118
test_long_long,2,2,25,Rest,Rest,Rest,Rest,Rest,Rest,Rest,343.9,2.0,Rest,Rest,Rest,Rest,Rest,Rest,Rest,Rest,Rest,Rest,2.0
test_long_long,2,2,26,catch,NA,NA,0,catch,NA,NA,345.9,0.2,346.15,0.0,346.15,0.0,346.15,0.25,346.4,1.5666666666666667,left,12,1.789999078027904e-05
test_long_long,2,2,27,go,left,NA,0,weak,NA,NA,347.96666666666664,0.2,348.21666666666664,0.2,348.4166666666667,0.03333333333333333,348.45,0.016666666666666666,348.46666666666664,1.5333333333333334,left,12,0.19889569998485968
test_long_long,2,2,28,catch,NA,NA,0,catch,NA,NA,350.0,0.2,350.25,0.0,350.25,0.0,350.25,0.25,350.5,1.6,left,12,1.650000922381878e-05
test_long_long,2,2,29,nogo,right,NA,1,weak,NA,NA,352.1,0.2,352.35,0.2,352.55,0.03333333333333333,352.5833333333333,0.016666666666666666,352.6,1.6666666666666667,left,12,0.19491829999606125
test_long_long,2,2,30,Rest,Rest,Rest,Rest,Rest,Rest,Rest,354.26666666666665,4.0,Rest,Rest,Rest,Rest,Rest,Rest,Rest,Rest,Rest,Rest,4.0
test_long_long,2,2,31,nogo,right,NA,1,strong,NA,NA,358.26666666666665,0.2,358.51666666666665,0.016666666666666666,358.53333333333336,0.03333333333333333,358.56666666666666,0.2,358.76666666666665,1.6333333333333333,left,12,0.017553800018504262
test_long_long,2,2,32,nogo,right,NA,1,weak,NA,NA,360.4,0.2,360.65,0.2,360.85,0.03333333333333333,360.8833333333333,0.016666666666666666,360.9,1.5,left,12,0.20175760000711307
test_long_long,2,2,33,catch,NA,NA,0,catch,NA,NA,362.4,0.2,362.65,0.0,362.65,0.0,362.65,0.25,362.9,1.5666666666666667,left,12,2.889998722821474e-05
test_long_long,2,2,34,go,left,NA,0,weak,NA,NA,364.46666666666664,0.2,364.71666666666664,0.2,364.9166666666667,0.03333333333333333,364.95,0.016666666666666666,364.96666666666664,1.6666666666666667,left,12,0.19956120001734234
test_long_long,2,2,35,nogo,right,NA,1,weak,NA,NA,366.6333333333333,0.2,366.8833333333333,0.2,367.0833333333333,0.03333333333333333,367.1166666666667,0.016666666666666666,367.1333333333333,1.6333333333333333,left,12,0.19871530000818893
test_long_long,2,2,36,go,left,NA,0,weak,NA,NA,368.76666666666665,0.2,369.01666666666665,0.2,369.21666666666664,0.03333333333333333,369.25,0.016666666666666666,369.26666666666665,1.5,left,12,0.19503829997847788
test_long_long,2,2,37,nogo,right,NA,1,strong,NA,NA,370.76666666666665,0.2,371.01666666666665,0.016666666666666666,371.03333333333336,0.03333333333333333,371.06666666666666,0.2,371.26666666666665,1.5333333333333334,left,12,0.01629299999331124
test_long_long,2,2,38,Rest,Rest,Rest,Rest,Rest,Rest,Rest,372.8,2.0,Rest,Rest,Rest,Rest,Rest,Rest,Rest,Rest,Rest,Rest,2.0
test_long_long,2,2,39,go,left,NA,0,weak,NA,NA,374.8,0.2,375.05,0.2,375.25,0.03333333333333333,375.28333333333336,0.016666666666666666,375.3,1.5333333333333334,left,12,0.19506040000123903
test_long_long,2,2,40,nogo,right,NA,1,strong,NA,NA,376.8333333333333,0.2,377.0833333333333,0.016666666666666666,377.1,0.03333333333333333,377.1333333333333,0.2,377.3333333333333,1.5,left,12,0.022664399992208928
test_long_long,2,2,41,go,left,NA,0,strong,NA,NA,378.8333333333333,0.2,379.0833333333333,0.016666666666666666,379.1,0.03333333333333333,379.1333333333333,0.2,379.3333333333333,1.5666666666666667,left,12,0.022318600007565692
test_long_long,2,2,42,Rest,Rest,Rest,Rest,Rest,Rest,Rest,380.9,2.0,Rest,Rest,Rest,Rest,Rest,Rest,Rest,Rest,Rest,Rest,2.0
test_long_long,2,2,43,catch,NA,NA,0,catch,NA,NA,382.9,0.2,383.15,0.0,383.15,0.0,383.15,0.25,383.4,1.5666666666666667,left,12,3.329999162815511e-05
test_long_long,2,2,44,Rest,Rest,Rest,Rest,Rest,Rest,Rest,384.96666666666664,2.0,Rest,Rest,Rest,Rest,Rest,Rest,Rest,Rest,Rest,Rest,2.0
test_long_long,2,2,45,go,left,NA,0,strong,NA,NA,386.96666666666664,0.2,387.21666666666664,0.016666666666666666,387.23333333333335,0.03333333333333333,387.26666666666665,0.2,387.46666666666664,1.5,left,12,0.015630600013537332
