subid,run,trial,trial_type,side,response,correct,strength,response_time,cumulative_response_time,fixation_onset,fixation_dur,stim_onset,stim_dur,blank_onset,blank_dur,mask_onset,mask_dur,response_onset,response_dur,go_side,Staircase_stimulus,Presentation Duration
test,3,1,nogo,right,right,1,weak,0.633,1.157,0.0,0.2,0.25,0.2,0.45,0.03333333333333333,0.48333333333333334,0.016666666666666666,0.5,1.3,left,12,0.1998029999958817
test,3,2,nogo,right,left,0,strong,0.668,2.791,1.8,0.2,2.05,0.016666666666666666,2.066666666666667,0.03333333333333333,2.1,0.2,2.3,1.3,left,12,0.016754400014178827
test,3,3,Rest,Rest,Rest,Rest,Rest,Rest,Rest,3.6,1.8,Rest,Rest,Rest,Rest,Rest,Rest,Rest,Rest,Rest,Rest,1.8
test,3,4,catch,NA,left,1,catch,0.601,6.073,5.4,0.2,5.65,0.0,5.65,0.0,5.65,0.25,5.9,1.3,left,12,1.6400008462369442e-05
test,3,5,go,left,left,1,strong,0.584,7.656,7.2,0.2,7.45,0.016666666666666666,7.466666666666667,0.03333333333333333,7.5,0.2,7.7,1.3,left,12,0.01651109999511391
test,3,6,go,left,left,1,strong,0.501,9.172,9.0,0.2,9.25,0.016666666666666666,9.266666666666667,0.03333333333333333,9.3,0.2,9.5,1.3,left,12,0.016689700016286224
test,3,7,Rest,Rest,Rest,Rest,Rest,Rest,Rest,10.8,1.8,Rest,Rest,Rest,Rest,Rest,Rest,Rest,Rest,Rest,Rest,1.8
test,3,8,go,left,left,1,strong,0.451,12.522,12.6,0.2,12.85,0.016666666666666666,12.866666666666667,0.03333333333333333,12.9,0.2,13.1,1.3,left,12,0.016587400023126975
test,3,9,nogo,right,left,0,strong,0.434,14.105,14.4,0.2,14.65,0.016666666666666666,14.666666666666666,0.03333333333333333,14.7,0.2,14.9,1.3,left,12,0.01663420000113547
test,3,10,go,left,left,1,weak,0.368,15.821,16.2,0.2,16.45,0.2,16.65,0.03333333333333333,16.683333333333334,0.016666666666666666,16.7,1.3,left,12,0.19961489998968318
test,3,11,nogo,right,left,0,strong,0.4,17.453,18.0,0.2,18.25,0.016666666666666666,18.266666666666666,0.03333333333333333,18.3,0.2,18.5,1.3,left,12,0.0169346000184305
test,3,12,nogo,right,left,0,strong,0.35,19.002,19.8,0.2,20.05,0.016666666666666666,20.066666666666666,0.03333333333333333,20.1,0.2,20.3,1.3,left,12,0.017064199986634776
test,3,13,nogo,right,left,0,weak,0.25,20.686,21.6,0.2,21.85,0.2,22.05,0.03333333333333333,22.083333333333332,0.016666666666666666,22.1,1.3,left,12,0.19962920001125894
test,3,14,Rest,Rest,Rest,Rest,Rest,Rest,Rest,23.4,1.8,Rest,Rest,Rest,Rest,Rest,Rest,Rest,Rest,Rest,Rest,1.8
test,3,15,nogo,right,left,0,weak,0.3,24.318,25.2,0.2,25.45,0.2,25.65,0.03333333333333333,25.683333333333334,0.016666666666666666,25.7,1.3,left,12,0.19991070000105537
test,3,16,go,left,left,1,strong,0.55,26.168,27.0,0.2,27.25,0.016666666666666666,27.266666666666666,0.03333333333333333,27.3,0.2,27.5,1.3,left,12,0.016550500004086643
test,3,17,nogo,right,NA,1,weak,NA,NA,28.8,0.2,29.05,0.2,29.25,0.03333333333333333,29.283333333333335,0.016666666666666666,29.3,1.3,left,12,0.19984600000316277
test,3,18,nogo,right,left,0,strong,0.467,29.467,30.6,0.2,30.85,0.016666666666666666,30.866666666666667,0.03333333333333333,30.9,0.2,31.1,1.3,left,12,0.016889599995920435
test,3,19,go,left,left,1,weak,0.534,31.316,32.4,0.2,32.65,0.2,32.85,0.03333333333333333,32.88333333333333,0.016666666666666666,32.9,1.3,left,12,0.20002390001900494
test,3,20,nogo,right,NA,1,weak,NA,NA,34.2,0.2,34.45,0.2,34.65,0.03333333333333333,34.68333333333333,0.016666666666666666,34.7,1.3,left,12,0.20022359999711625
test,3,21,go,left,left,1,strong,0.518,34.683,36.0,0.2,36.25,0.016666666666666666,36.266666666666666,0.03333333333333333,36.3,0.2,36.5,1.3,left,12,0.017113599984440953
test,3,22,go,left,left,1,weak,0.517,36.465,37.8,0.2,38.05,0.2,38.25,0.03333333333333333,38.28333333333333,0.016666666666666666,38.3,1.3,left,12,0.19942630000878125
test,3,23,go,left,left,1,strong,0.683,38.231,39.6,0.2,39.85,0.016666666666666666,39.86666666666667,0.03333333333333333,39.9,0.2,40.1,1.3,left,12,0.016511900001205504
test,3,24,go,left,left,1,weak,0.55,39.881,41.4,0.2,41.65,0.2,41.85,0.03333333333333333,41.88333333333333,0.016666666666666666,41.9,1.3,left,12,0.19978830000036396
test,3,25,nogo,right,left,0,strong,0.549,41.48,43.2,0.2,43.45,0.016666666666666666,43.46666666666667,0.03333333333333333,43.5,0.2,43.7,1.3,left,12,0.016953400016063824
test,3,26,nogo,right,NA,1,weak,NA,NA,45.0,0.2,45.25,0.2,45.45,0.03333333333333333,45.483333333333334,0.016666666666666666,45.5,1.3,left,12,0.19977680000010878
test,3,27,catch,NA,left,1,catch,0.55,44.813,46.8,0.2,47.05,0.0,47.05,0.0,47.05,0.25,47.3,1.3,left,12,1.930000144056976e-05
test,3,28,nogo,right,NA,1,weak,NA,NA,48.6,0.2,48.85,0.2,49.05,0.03333333333333333,49.083333333333336,0.016666666666666666,49.1,1.3,left,12,0.2001610999868717
test,3,29,nogo,right,left,0,strong,0.534,48.178,50.4,0.2,50.65,0.016666666666666666,50.666666666666664,0.03333333333333333,50.7,0.2,50.9,1.3,left,12,0.016654200007906184
test,3,30,catch,NA,left,1,catch,0.616,49.811,52.2,0.2,52.45,0.0,52.45,0.0,52.45,0.25,52.7,1.3,left,12,1.5600002370774746e-05
test,3,31,go,left,left,1,weak,0.401,51.378,54.0,0.2,54.25,0.2,54.45,0.03333333333333333,54.483333333333334,0.016666666666666666,54.5,1.3,left,12,0.19985229999292642
test,3,32,Rest,Rest,Rest,Rest,Rest,Rest,Rest,55.8,1.8,Rest,Rest,Rest,Rest,Rest,Rest,Rest,Rest,Rest,Rest,1.8
test,3,33,nogo,right,left,0,strong,0.367,54.744,57.6,0.2,57.85,0.016666666666666666,57.86666666666667,0.03333333333333333,57.9,0.2,58.1,1.3,left,12,0.01693189999787137
test,3,34,Rest,Rest,Rest,Rest,Rest,Rest,Rest,59.4,1.8,Rest,Rest,Rest,Rest,Rest,Rest,Rest,Rest,Rest,Rest,1.8
test,3,35,go,left,left,1,weak,0.083,58.043,61.2,0.2,61.45,0.2,61.65,0.03333333333333333,61.68333333333333,0.016666666666666666,61.7,1.3,left,12,0.19993950001662597
test,3,36,go,left,left,1,strong,0.484,60.043,63.0,0.2,63.25,0.016666666666666666,63.266666666666666,0.03333333333333333,63.3,0.2,63.5,1.3,left,12,0.016842499986523762
test,3,37,go,left,left,1,weak,0.167,61.509,64.8,0.2,65.05,0.2,65.25,0.03333333333333333,65.28333333333333,0.016666666666666666,65.3,1.3,left,12,0.20001529998262413
test,3,38,Rest,Rest,Rest,Rest,Rest,Rest,Rest,66.6,1.8,Rest,Rest,Rest,Rest,Rest,Rest,Rest,Rest,Rest,Rest,1.8
test,3,39,go,left,left,1,strong,0.283,65.024,68.4,0.2,68.65,0.016666666666666666,68.66666666666667,0.03333333333333333,68.7,0.2,68.9,1.3,left,12,0.016836299997521564
test,3,40,go,left,left,1,weak,0.284,66.808,70.2,0.2,70.45,0.2,70.65,0.03333333333333333,70.68333333333334,0.016666666666666666,70.7,1.3,left,12,0.199731900007464
test,3,41,Rest,Rest,Rest,Rest,Rest,Rest,Rest,72.0,5.4,Rest,Rest,Rest,Rest,Rest,Rest,Rest,Rest,Rest,Rest,5.4
test,3,42,nogo,right,NA,1,weak,NA,NA,77.4,0.2,77.65,0.2,77.85,0.03333333333333333,77.88333333333334,0.016666666666666666,77.9,1.3,left,12,0.19987929999479093
test,3,43,catch,NA,left,1,catch,0.568,75.823,79.2,0.2,79.45,0.0,79.45,0.0,79.45,0.25,79.7,1.3,left,12,1.5099998563528061e-05
test,3,1,catch,NA,left,1,catch,0.55,82.353,84.2,0.2,84.45,0.0,84.45,0.0,84.45,0.25,84.7,1.3,left,12,1.5099998563528061e-05
test,3,2,nogo,right,left,0,weak,0.285,83.871,86.0,0.2,86.25,0.2,86.45,0.03333333333333333,86.48333333333333,0.016666666666666666,86.5,1.3,left,12,0.20041190000483766
test,3,3,catch,NA,left,1,catch,0.633,85.769,87.8,0.2,88.05,0.0,88.05,0.0,88.05,0.25,88.3,1.3,left,12,1.9099999917671084e-05
test,3,4,nogo,right,left,0,strong,0.717,87.453,89.6,0.2,89.85,0.016666666666666666,89.86666666666666,0.03333333333333333,89.9,0.2,90.1,1.3,left,12,0.01670350000495091
test,3,5,nogo,right,left,0,strong,0.65,88.985,91.4,0.2,91.65,0.016666666666666666,91.66666666666667,0.03333333333333333,91.7,0.2,91.9,1.3,left,12,0.016530700027942657
test,3,6,nogo,right,NA,1,weak,NA,NA,93.2,0.2,93.45,0.2,93.65,0.03333333333333333,93.68333333333334,0.016666666666666666,93.7,1.3,left,12,0.20028109999839216
test,3,7,Rest,Rest,Rest,Rest,Rest,Rest,Rest,95.0,1.8,Rest,Rest,Rest,Rest,Rest,Rest,Rest,Rest,Rest,Rest,1.8
test,3,8,catch,NA,left,1,catch,0.533,94.001,96.8,0.2,97.05,0.0,97.05,0.0,97.05,0.25,97.3,1.3,left,12,1.200000406242907e-05
test,3,9,go,left,left,1,strong,0.5,95.567,98.6,0.2,98.85,0.016666666666666666,98.86666666666666,0.03333333333333333,98.9,0.2,99.1,1.3,left,12,0.016511399997398257
test,3,10,nogo,right,left,0,strong,0.95,97.617,100.4,0.2,100.65,0.016666666666666666,100.66666666666667,0.03333333333333333,100.7,0.2,100.9,1.3,left,12,0.016682099987519905
test,3,11,Rest,Rest,Rest,Rest,Rest,Rest,Rest,102.2,1.8,Rest,Rest,Rest,Rest,Rest,Rest,Rest,Rest,Rest,Rest,1.8
test,3,12,go,left,left,1,weak,0.384,100.633,104.0,0.2,104.25,0.2,104.45,0.03333333333333333,104.48333333333333,0.016666666666666666,104.5,1.3,left,12,0.20037870001397096
test,3,13,go,left,left,1,strong,0.466,102.315,105.8,0.2,106.05,0.016666666666666666,106.06666666666666,0.03333333333333333,106.1,0.2,106.3,1.3,left,12,0.01669769998989068
test,3,14,go,left,left,1,strong,0.417,103.865,107.6,0.2,107.85,0.016666666666666666,107.86666666666666,0.03333333333333333,107.9,0.2,108.1,1.3,left,12,0.016658099979395047
test,3,15,nogo,right,left,0,strong,0.45,105.498,109.4,0.2,109.65,0.016666666666666666,109.66666666666667,0.03333333333333333,109.7,0.2,109.9,1.3,left,12,0.016855699999723583
test,3,16,nogo,right,NA,1,weak,NA,NA,111.2,0.2,111.45,0.2,111.65,0.03333333333333333,111.68333333333334,0.016666666666666666,111.7,1.3,left,12,0.20008239999879152
test,3,17,Rest,Rest,Rest,Rest,Rest,Rest,Rest,113.0,1.8,Rest,Rest,Rest,Rest,Rest,Rest,Rest,Rest,Rest,Rest,1.8
test,3,18,go,left,left,1,weak,0.383,110.797,114.8,0.2,115.05,0.2,115.25,0.03333333333333333,115.28333333333333,0.016666666666666666,115.3,1.3,left,12,0.19944610001402907
test,3,19,nogo,right,NA,1,weak,NA,NA,116.6,0.2,116.85,0.2,117.05,0.03333333333333333,117.08333333333333,0.016666666666666666,117.1,1.3,left,12,0.19990529998904094
test,3,20,go,left,left,1,weak,0.4,114.379,118.4,0.2,118.65,0.2,118.85,0.03333333333333333,118.88333333333334,0.016666666666666666,118.9,1.3,left,12,0.20013169999583624
test,3,21,go,left,left,1,strong,0.517,116.095,120.2,0.2,120.45,0.016666666666666666,120.46666666666667,0.03333333333333333,120.5,0.2,120.7,1.3,left,12,0.016721899999538437
test,3,22,go,left,left,1,weak,0.534,117.895,122.0,0.2,122.25,0.2,122.45,0.03333333333333333,122.48333333333333,0.016666666666666666,122.5,1.3,left,12,0.19990120001602918
test,3,23,go,left,left,1,weak,0.484,119.628,123.8,0.2,124.05,0.2,124.25,0.03333333333333333,124.28333333333333,0.016666666666666666,124.3,1.3,left,12,0.19991419999860227
test,3,24,Rest,Rest,Rest,Rest,Rest,Rest,Rest,125.6,3.6,Rest,Rest,Rest,Rest,Rest,Rest,Rest,Rest,Rest,Rest,3.6
test,3,25,go,left,left,1,weak,0.383,124.91,129.2,0.2,129.45,0.2,129.65,0.03333333333333333,129.68333333333334,0.016666666666666666,129.7,1.3,left,12,0.20016300000133924
test,3,26,go,left,left,1,weak,0.451,126.76,131.0,0.2,131.25,0.2,131.45,0.03333333333333333,131.48333333333332,0.016666666666666666,131.5,1.3,left,12,0.1999987000017427
test,3,27,Rest,Rest,Rest,Rest,Rest,Rest,Rest,132.8,1.8,Rest,Rest,Rest,Rest,Rest,Rest,Rest,Rest,Rest,Rest,1.8
test,3,28,nogo,right,left,0,weak,0.184,130.076,134.6,0.2,134.85,0.2,135.05,0.03333333333333333,135.08333333333334,0.016666666666666666,135.1,1.3,left,12,0.2002271999954246
test,3,29,nogo,right,left,0,strong,0.534,132.026,136.4,0.2,136.65,0.016666666666666666,136.66666666666666,0.03333333333333333,136.7,0.2,136.9,1.3,left,12,0.016372599988244474
test,3,30,catch,NA,left,1,catch,0.6,133.641,138.2,0.2,138.45,0.0,138.45,0.0,138.45,0.25,138.7,1.3,left,12,1.270000939257443e-05
test,3,31,go,left,left,1,weak,0.217,135.041,140.0,0.2,140.25,0.2,140.45,0.03333333333333333,140.48333333333332,0.016666666666666666,140.5,1.3,left,12,0.20015329998568632
test,3,32,Rest,Rest,Rest,Rest,Rest,Rest,Rest,141.8,1.8,Rest,Rest,Rest,Rest,Rest,Rest,Rest,Rest,Rest,Rest,1.8
test,3,33,go,left,left,1,strong,0.516,138.74,143.6,0.2,143.85,0.016666666666666666,143.86666666666667,0.03333333333333333,143.9,0.2,144.1,1.3,left,12,0.01708579997648485
test,3,34,nogo,right,NA,1,weak,NA,NA,145.4,0.2,145.65,0.2,145.85,0.03333333333333333,145.88333333333333,0.016666666666666666,145.9,1.3,left,12,0.19999819999793544
test,3,35,nogo,right,NA,1,weak,NA,NA,147.2,0.2,147.45,0.2,147.65,0.03333333333333333,147.68333333333334,0.016666666666666666,147.7,1.3,left,12,0.19995290000224486
test,3,36,go,left,left,1,strong,0.517,143.905,149.0,0.2,149.25,0.016666666666666666,149.26666666666668,0.03333333333333333,149.3,0.2,149.5,1.3,left,12,0.01661329998751171
test,3,37,go,left,left,1,strong,0.5,145.488,150.8,0.2,151.05,0.016666666666666666,151.06666666666666,0.03333333333333333,151.1,0.2,151.3,1.3,left,12,0.01663709999411367
test,3,38,nogo,right,left,0,strong,0.516,147.104,152.6,0.2,152.85,0.016666666666666666,152.86666666666667,0.03333333333333333,152.9,0.2,153.1,1.3,left,12,0.016615300002740696
test,3,39,nogo,right,left,0,strong,0.7,148.887,154.4,0.2,154.65,0.016666666666666666,154.66666666666666,0.03333333333333333,154.7,0.2,154.9,1.3,left,12,0.01649599999655038
test,3,40,Rest,Rest,Rest,Rest,Rest,Rest,Rest,156.2,1.8,Rest,Rest,Rest,Rest,Rest,Rest,Rest,Rest,Rest,Rest,1.8
test,3,41,nogo,right,NA,1,weak,NA,NA,158.0,0.2,158.25,0.2,158.45,0.03333333333333333,158.48333333333332,0.016666666666666666,158.5,1.3,left,12,0.19970399999874644
test,3,42,Rest,Rest,Rest,Rest,Rest,Rest,Rest,159.8,1.8,Rest,Rest,Rest,Rest,Rest,Rest,Rest,Rest,Rest,Rest,1.8
test,3,43,go,left,left,1,strong,0.484,155.654,161.6,0.2,161.85,0.016666666666666666,161.86666666666667,0.03333333333333333,161.9,0.2,162.1,1.3,left,12,0.016353300015907735
test,3,44,nogo,right,left,0,strong,0.517,157.286,163.4,0.2,163.65,0.016666666666666666,163.66666666666666,0.03333333333333333,163.7,0.2,163.9,1.3,left,12,0.01665500001399778
