subid,session,run,trial,trial_type,side,response,correct,strength,response_time,cumulative_response_time,fixation_onset,fixation_dur,stim_onset,stim_dur,blank_onset,blank_dur,mask_onset,mask_dur,response_onset,response_dur,go_side,Staircase_stimulus,Presentation Duration
test_long,2,2,1,nogo,right,NA,1,weak,NA,NA,0.0,0.2,0.25,0.2,0.45,0.03333333333333333,0.48333333333333334,0.016666666666666666,0.5,1.5,left,12,0.19968269998207688
test_long,2,2,2,nogo,right,NA,1,weak,NA,NA,2.0,0.2,2.25,0.2,2.45,0.03333333333333333,2.4833333333333334,0.016666666666666666,2.5,1.5,left,12,0.1996252000099048
test_long,2,2,3,catch,NA,NA,0,catch,NA,NA,4.0,0.2,4.25,0.0,4.25,0.0,4.25,0.25,4.5,1.5,left,12,1.9600032828748226e-05
test_long,2,2,4,catch,NA,NA,0,catch,NA,NA,6.0,0.2,6.25,0.0,6.25,0.0,6.25,0.25,6.5,1.5,left,12,2.389994915574789e-05
test_long,2,2,5,nogo,right,NA,1,strong,NA,NA,8.0,0.2,8.25,0.016666666666666666,8.266666666666667,0.03333333333333333,8.3,0.2,8.5,1.5,left,12,0.01674469991121441
test_long,2,2,6,nogo,right,NA,1,weak,NA,NA,10.0,0.2,10.25,0.2,10.45,0.03333333333333333,10.483333333333333,0.016666666666666666,10.5,1.5,left,12,0.2000705999089405
test_long,2,2,7,go,left,NA,0,strong,NA,NA,12.0,0.2,12.25,0.016666666666666666,12.266666666666667,0.03333333333333333,12.3,0.2,12.5,1.5,left,12,0.016519600059837103
test_long,2,2,8,nogo,right,NA,1,weak,NA,NA,14.0,0.2,14.25,0.2,14.45,0.03333333333333333,14.483333333333333,0.016666666666666666,14.5,1.5,left,12,0.20026090007741004
test_long,2,2,9,go,left,NA,0,weak,NA,NA,16.0,0.2,16.25,0.2,16.45,0.03333333333333333,16.483333333333334,0.016666666666666666,16.5,1.5,left,12,0.20026179996784776
test_long,2,2,10,Rest,Rest,Rest,Rest,Rest,Rest,Rest,18.0,2.0,Rest,Rest,Rest,Rest,Rest,Rest,Rest,Rest,Rest,Rest,2.0
test_long,2,2,11,go,left,NA,0,weak,NA,NA,20.0,0.2,20.25,0.2,20.45,0.03333333333333333,20.483333333333334,0.016666666666666666,20.5,1.5,left,12,0.1998228000011295
test_long,2,2,12,go,left,NA,0,strong,NA,NA,22.0,0.2,22.25,0.016666666666666666,22.266666666666666,0.03333333333333333,22.3,0.2,22.5,1.5,left,12,0.01608740002848208
test_long,2,2,13,go,left,NA,0,weak,NA,NA,24.0,0.2,24.25,0.2,24.45,0.03333333333333333,24.483333333333334,0.016666666666666666,24.5,1.5,left,12,0.20068920007906854
test_long,2,2,14,nogo,right,NA,1,strong,NA,NA,26.0,0.2,26.25,0.016666666666666666,26.266666666666666,0.03333333333333333,26.3,0.2,26.5,1.5,left,12,0.01712020009290427
test_long,2,2,15,nogo,right,NA,1,weak,NA,NA,28.0,0.2,28.25,0.2,28.45,0.03333333333333333,28.483333333333334,0.016666666666666666,28.5,1.5,left,12,0.20038289995864034
test_long,2,2,16,Rest,Rest,Rest,Rest,Rest,Rest,Rest,30.0,8.0,Rest,Rest,Rest,Rest,Rest,Rest,Rest,Rest,Rest,Rest,8.0
test_long,2,2,17,nogo,right,NA,1,strong,NA,NA,38.0,0.2,38.25,0.016666666666666666,38.266666666666666,0.03333333333333333,38.3,0.2,38.5,1.5,left,12,0.015797800035215914
test_long,2,2,18,Rest,Rest,Rest,Rest,Rest,Rest,Rest,40.0,2.0,Rest,Rest,Rest,Rest,Rest,Rest,Rest,Rest,Rest,Rest,2.0
test_long,2,2,19,go,left,NA,0,strong,NA,NA,42.0,0.2,42.25,0.016666666666666666,42.266666666666666,0.03333333333333333,42.3,0.2,42.5,1.5,left,12,0.01667679997626692
test_long,2,2,20,nogo,right,NA,1,strong,NA,NA,44.0,0.2,44.25,0.016666666666666666,44.266666666666666,0.03333333333333333,44.3,0.2,44.5,1.5,left,12,0.01705009990837425
test_long,2,2,21,nogo,right,NA,1,strong,NA,NA,46.0,0.2,46.25,0.016666666666666666,46.266666666666666,0.03333333333333333,46.3,0.2,46.5,1.5,left,12,0.016930999932810664
test_long,2,2,22,go,left,NA,0,strong,NA,NA,48.0,0.2,48.25,0.016666666666666666,48.266666666666666,0.03333333333333333,48.3,0.2,48.5,1.5,left,12,0.017193900072015822
test_long,2,2,23,catch,NA,NA,0,catch,NA,NA,50.0,0.2,50.25,0.0,50.25,0.0,50.25,0.25,50.5,1.5,left,12,1.7300015315413475e-05
test_long,2,2,24,nogo,right,NA,1,weak,NA,NA,52.0,0.2,52.25,0.2,52.45,0.03333333333333333,52.483333333333334,0.016666666666666666,52.5,1.5,left,12,0.2001248000888154
test_long,2,2,25,nogo,right,NA,1,strong,NA,NA,54.0,0.2,54.25,0.016666666666666666,54.266666666666666,0.03333333333333333,54.3,0.2,54.5,1.5,left,12,0.016360600013285875
test_long,2,2,26,nogo,right,NA,1,weak,NA,NA,56.0,0.2,56.25,0.2,56.45,0.03333333333333333,56.483333333333334,0.016666666666666666,56.5,1.5,left,12,0.19973630004096776
test_long,2,2,27,Rest,Rest,Rest,Rest,Rest,Rest,Rest,58.0,2.0,Rest,Rest,Rest,Rest,Rest,Rest,Rest,Rest,Rest,Rest,2.0
test_long,2,2,28,catch,NA,NA,0,catch,NA,NA,60.0,0.2,60.25,0.0,60.25,0.0,60.25,0.25,60.5,1.5,left,12,2.22999369725585e-05
test_long,2,2,29,go,left,NA,0,weak,NA,NA,62.0,0.2,62.25,0.2,62.45,0.03333333333333333,62.483333333333334,0.016666666666666666,62.5,1.5,left,12,0.19933059997856617
test_long,2,2,30,go,left,NA,0,weak,NA,NA,64.0,0.2,64.25,0.2,64.45,0.03333333333333333,64.48333333333333,0.016666666666666666,64.5,1.5,left,12,0.20011149998754263
test_long,2,2,31,nogo,right,NA,1,strong,NA,NA,66.0,0.2,66.25,0.016666666666666666,66.26666666666667,0.03333333333333333,66.3,0.2,66.5,1.5,left,12,0.01679120003245771
test_long,2,2,32,go,left,NA,0,weak,NA,NA,68.0,0.2,68.25,0.2,68.45,0.03333333333333333,68.48333333333333,0.016666666666666666,68.5,1.5,left,12,0.19975620007608086
test_long,2,2,33,nogo,right,NA,1,weak,NA,NA,70.0,0.2,70.25,0.2,70.45,0.03333333333333333,70.48333333333333,0.016666666666666666,70.5,1.5,left,12,0.2002385000232607
test_long,2,2,34,go,left,NA,0,strong,NA,NA,72.0,0.2,72.25,0.016666666666666666,72.26666666666667,0.03333333333333333,72.3,0.2,72.5,1.5,left,12,0.016455700038932264
test_long,2,2,35,go,left,NA,0,strong,NA,NA,74.0,0.2,74.25,0.016666666666666666,74.26666666666667,0.03333333333333333,74.3,0.2,74.5,1.5,left,12,0.016713200020603836
test_long,2,2,36,go,left,NA,0,weak,NA,NA,76.0,0.2,76.25,0.2,76.45,0.03333333333333333,76.48333333333333,0.016666666666666666,76.5,1.5,left,12,0.19919329998083413
test_long,2,2,37,nogo,right,NA,1,weak,NA,NA,78.0,0.2,78.25,0.2,78.45,0.03333333333333333,78.48333333333333,0.016666666666666666,78.5,1.5,left,12,0.20073659997433424
test_long,2,2,38,go,left,NA,0,weak,NA,NA,80.0,0.2,80.25,0.2,80.45,0.03333333333333333,80.48333333333333,0.016666666666666666,80.5,1.5,left,12,0.19985400000587106
test_long,2,2,39,Rest,Rest,Rest,Rest,Rest,Rest,Rest,82.0,2.0,Rest,Rest,Rest,Rest,Rest,Rest,Rest,Rest,Rest,Rest,2.0
test_long,2,2,40,catch,NA,NA,0,catch,NA,NA,84.0,0.2,84.25,0.0,84.25,0.0,84.25,0.25,84.5,1.5,left,12,1.7700018361210823e-05
test_long,2,2,41,catch,NA,NA,0,catch,NA,NA,91.2,0.2,91.45,0.0,91.45,0.0,91.45,0.25,91.7,1.5,left,12,1.910002902150154e-05
test_long,2,2,42,nogo,right,NA,1,strong,NA,NA,93.2,0.2,93.45,0.016666666666666666,93.46666666666667,0.03333333333333333,93.5,0.2,93.7,1.5,left,12,0.016667200019583106
test_long,2,2,43,nogo,right,NA,1,strong,NA,NA,95.2,0.2,95.45,0.016666666666666666,95.46666666666667,0.03333333333333333,95.5,0.2,95.7,1.5,left,12,0.016517400043085217
test_long,2,2,44,catch,NA,NA,0,catch,NA,NA,97.2,0.2,97.45,0.0,97.45,0.0,97.45,0.25,97.7,1.5,left,12,1.9300030544400215e-05
test_long,2,2,45,go,left,NA,0,weak,NA,NA,99.2,0.2,99.45,0.2,99.65,0.03333333333333333,99.68333333333334,0.016666666666666666,99.7,1.5,left,12,0.20016909996047616
test_long,2,2,46,go,left,NA,0,weak,NA,NA,101.2,0.2,101.45,0.2,101.65,0.03333333333333333,101.68333333333334,0.016666666666666666,101.7,1.5,left,12,0.20013760006986558
test_long,2,2,47,nogo,right,NA,1,strong,NA,NA,103.2,0.2,103.45,0.016666666666666666,103.46666666666667,0.03333333333333333,103.5,0.2,103.7,1.5,left,12,0.016862999997101724
test_long,2,2,48,nogo,right,NA,1,strong,NA,NA,105.2,0.2,105.45,0.016666666666666666,105.46666666666667,0.03333333333333333,105.5,0.2,105.7,1.5,left,12,0.016164000029675663
test_long,2,2,49,nogo,right,NA,1,weak,NA,NA,107.2,0.2,107.45,0.2,107.65,0.03333333333333333,107.68333333333334,0.016666666666666666,107.7,1.5,left,12,0.19975949998479337
test_long,2,2,50,go,left,NA,0,weak,NA,NA,109.2,0.2,109.45,0.2,109.65,0.03333333333333333,109.68333333333334,0.016666666666666666,109.7,1.5,left,12,0.20078380010090768
test_long,2,2,51,catch,NA,NA,0,catch,NA,NA,111.2,0.2,111.45,0.0,111.45,0.0,111.45,0.25,111.7,1.5,left,12,1.7299898900091648e-05
test_long,2,2,52,go,left,NA,0,strong,NA,NA,113.2,0.2,113.45,0.016666666666666666,113.46666666666667,0.03333333333333333,113.5,0.2,113.7,1.5,left,12,0.016659699962474406
test_long,2,2,53,go,left,NA,0,weak,NA,NA,115.2,0.2,115.45,0.2,115.65,0.03333333333333333,115.68333333333334,0.016666666666666666,115.7,1.5,left,12,0.19988249999005347
test_long,2,2,54,catch,NA,NA,0,catch,NA,NA,117.2,0.2,117.45,0.0,117.45,0.0,117.45,0.25,117.7,1.5,left,12,1.9300030544400215e-05
test_long,2,2,55,go,left,NA,0,strong,NA,NA,119.2,0.2,119.45,0.016666666666666666,119.46666666666667,0.03333333333333333,119.5,0.2,119.7,1.5,left,12,0.016672900062985718
test_long,2,2,56,go,left,NA,0,strong,NA,NA,121.2,0.2,121.45,0.016666666666666666,121.46666666666667,0.03333333333333333,121.5,0.2,121.7,1.5,left,12,0.01617489999625832
test_long,2,2,57,nogo,right,NA,1,strong,NA,NA,123.2,0.2,123.45,0.016666666666666666,123.46666666666667,0.03333333333333333,123.5,0.2,123.7,1.5,left,12,0.015631900052540004
test_long,2,2,58,go,left,NA,0,strong,NA,NA,125.2,0.2,125.45,0.016666666666666666,125.46666666666667,0.03333333333333333,125.5,0.2,125.7,1.5,left,12,0.01678519998677075
test_long,2,2,59,go,left,NA,0,weak,NA,NA,127.2,0.2,127.45,0.2,127.65,0.03333333333333333,127.68333333333334,0.016666666666666666,127.7,1.5,left,12,0.19952749996446073
test_long,2,2,60,Rest,Rest,Rest,Rest,Rest,Rest,Rest,129.2,2.0,Rest,Rest,Rest,Rest,Rest,Rest,Rest,Rest,Rest,Rest,2.0
test_long,2,2,61,nogo,right,NA,1,strong,NA,NA,131.2,0.2,131.45,0.016666666666666666,131.46666666666667,0.03333333333333333,131.5,0.2,131.7,1.5,left,12,0.013145099976100028
test_long,2,2,62,Rest,Rest,Rest,Rest,Rest,Rest,Rest,133.2,2.0,Rest,Rest,Rest,Rest,Rest,Rest,Rest,Rest,Rest,Rest,2.0
test_long,2,2,63,nogo,right,NA,1,weak,NA,NA,135.2,0.2,135.45,0.2,135.65,0.03333333333333333,135.68333333333334,0.016666666666666666,135.7,1.5,left,12,0.20008590002544224
test_long,2,2,64,nogo,right,NA,1,strong,NA,NA,137.2,0.2,137.45,0.016666666666666666,137.46666666666667,0.03333333333333333,137.5,0.2,137.7,1.5,left,12,0.016608299920335412
test_long,2,2,65,nogo,right,NA,1,weak,NA,NA,139.2,0.2,139.45,0.2,139.65,0.03333333333333333,139.68333333333334,0.016666666666666666,139.7,1.5,left,12,0.19921529991552234
test_long,2,2,66,nogo,right,NA,1,weak,NA,NA,141.2,0.2,141.45,0.2,141.65,0.03333333333333333,141.68333333333334,0.016666666666666666,141.7,1.5,left,12,0.21235130005516112
test_long,2,2,67,nogo,right,NA,1,weak,NA,NA,143.2,0.2,143.45,0.2,143.65,0.03333333333333333,143.68333333333334,0.016666666666666666,143.7,1.5,left,12,0.19725369999650866
test_long,2,2,68,nogo,right,NA,1,strong,NA,NA,145.2,0.2,145.45,0.016666666666666666,145.46666666666667,0.03333333333333333,145.5,0.2,145.7,1.5,left,12,0.01436430006287992
test_long,2,2,69,go,left,NA,0,weak,NA,NA,147.2,0.2,147.45,0.2,147.65,0.03333333333333333,147.68333333333334,0.016666666666666666,147.7,1.5,left,12,0.20150949992239475
test_long,2,2,70,nogo,right,NA,1,weak,NA,NA,149.2,0.2,149.45,0.2,149.65,0.03333333333333333,149.68333333333334,0.016666666666666666,149.7,1.5,left,12,0.1989747000625357
test_long,2,2,71,go,left,NA,0,strong,NA,NA,151.2,0.2,151.45,0.016666666666666666,151.46666666666667,0.03333333333333333,151.5,0.2,151.7,1.5,left,12,0.0169641999527812
test_long,2,2,72,Rest,Rest,Rest,Rest,Rest,Rest,Rest,153.2,4.0,Rest,Rest,Rest,Rest,Rest,Rest,Rest,Rest,Rest,Rest,4.0
test_long,2,2,73,go,left,NA,0,weak,NA,NA,157.2,0.2,157.45,0.2,157.65,0.03333333333333333,157.68333333333334,0.016666666666666666,157.7,1.5,left,12,0.20247810008004308
test_long,2,2,74,go,left,NA,0,strong,NA,NA,159.2,0.2,159.45,0.016666666666666666,159.46666666666667,0.03333333333333333,159.5,0.2,159.7,1.5,left,12,0.020154799916781485
test_long,2,2,75,nogo,right,NA,1,strong,NA,NA,161.2,0.2,161.45,0.016666666666666666,161.46666666666667,0.03333333333333333,161.5,0.2,161.7,1.5,left,12,0.01634189998731017
test_long,2,2,76,nogo,right,NA,1,strong,NA,NA,163.2,0.2,163.45,0.016666666666666666,163.46666666666667,0.03333333333333333,163.5,0.2,163.7,1.5,left,12,0.02010829991195351
test_long,2,2,77,go,left,NA,0,weak,NA,NA,165.2,0.2,165.45,0.2,165.65,0.03333333333333333,165.68333333333334,0.016666666666666666,165.7,1.5,left,12,0.19671689998358488
test_long,2,2,78,nogo,right,NA,1,weak,NA,NA,167.2,0.2,167.45,0.2,167.65,0.03333333333333333,167.68333333333334,0.016666666666666666,167.7,1.5,left,12,0.1986699999542907
test_long,2,2,79,go,left,NA,0,weak,NA,NA,169.2,0.2,169.45,0.2,169.65,0.03333333333333333,169.68333333333334,0.016666666666666666,169.7,1.5,left,12,0.1997811000328511
test_long,2,2,80,go,left,NA,0,weak,NA,NA,176.86666666666667,0.2,177.11666666666667,0.2,177.31666666666666,0.03333333333333333,177.35,0.016666666666666666,177.36666666666667,1.5,left,12,0.20059550006408244
test_long,2,2,81,Rest,Rest,Rest,Rest,Rest,Rest,Rest,178.86666666666667,4.0,Rest,Rest,Rest,Rest,Rest,Rest,Rest,Rest,Rest,Rest,4.0
test_long,2,2,82,go,left,NA,0,weak,NA,NA,182.86666666666667,0.2,183.11666666666667,0.2,183.31666666666666,0.03333333333333333,183.35,0.016666666666666666,183.36666666666667,1.5,left,12,0.19959579990245402
test_long,2,2,83,Rest,Rest,Rest,Rest,Rest,Rest,Rest,184.86666666666667,2.0,Rest,Rest,Rest,Rest,Rest,Rest,Rest,Rest,Rest,Rest,2.0
test_long,2,2,84,go,left,NA,0,strong,NA,NA,186.86666666666667,0.2,187.11666666666667,0.016666666666666666,187.13333333333333,0.03333333333333333,187.16666666666666,0.2,187.36666666666667,1.5,left,12,0.020647199940867722
test_long,2,2,85,nogo,right,NA,1,strong,NA,NA,188.86666666666667,0.2,189.11666666666667,0.016666666666666666,189.13333333333333,0.03333333333333333,189.16666666666666,0.2,189.36666666666667,1.5,left,12,0.014241399941965938
test_long,2,2,86,go,left,NA,0,strong,NA,NA,190.86666666666667,0.2,191.11666666666667,0.016666666666666666,191.13333333333333,0.03333333333333333,191.16666666666666,0.2,191.36666666666667,1.5,left,12,0.018820299999788404
test_long,2,2,87,go,left,NA,0,strong,NA,NA,192.86666666666667,0.2,193.11666666666667,0.016666666666666666,193.13333333333333,0.03333333333333333,193.16666666666666,0.2,193.36666666666667,1.5,left,12,0.0170534000499174
test_long,2,2,88,nogo,right,NA,1,weak,NA,NA,194.86666666666667,0.2,195.11666666666667,0.2,195.31666666666666,0.03333333333333333,195.35,0.016666666666666666,195.36666666666667,1.5,left,12,0.19990620005410165
test_long,2,2,89,Rest,Rest,Rest,Rest,Rest,Rest,Rest,196.86666666666667,2.0,Rest,Rest,Rest,Rest,Rest,Rest,Rest,Rest,Rest,Rest,2.0
test_long,2,2,90,nogo,right,NA,1,weak,NA,NA,198.86666666666667,0.2,199.11666666666667,0.2,199.31666666666666,0.03333333333333333,199.35,0.016666666666666666,199.36666666666667,1.5,left,12,0.20000519999302924
test_long,2,2,91,go,left,NA,0,strong,NA,NA,200.86666666666667,0.2,201.11666666666667,0.016666666666666666,201.13333333333333,0.03333333333333333,201.16666666666666,0.2,201.36666666666667,1.5,left,12,0.018314599990844727
test_long,2,2,92,nogo,right,NA,1,strong,NA,NA,202.86666666666667,0.2,203.11666666666667,0.016666666666666666,203.13333333333333,0.03333333333333333,203.16666666666666,0.2,203.36666666666667,1.5,left,12,0.01959450007416308
test_long,2,2,93,Rest,Rest,Rest,Rest,Rest,Rest,Rest,204.86666666666667,2.0,Rest,Rest,Rest,Rest,Rest,Rest,Rest,Rest,Rest,Rest,2.0
test_long,2,2,94,go,left,NA,0,strong,NA,NA,206.86666666666667,0.2,207.11666666666667,0.016666666666666666,207.13333333333333,0.03333333333333333,207.16666666666666,0.2,207.36666666666667,1.5,left,12,0.01669339998625219
test_long,2,2,95,Rest,Rest,Rest,Rest,Rest,Rest,Rest,208.86666666666667,4.0,Rest,Rest,Rest,Rest,Rest,Rest,Rest,Rest,Rest,Rest,4.0
test_long,2,2,96,go,left,NA,0,weak,NA,NA,212.86666666666667,0.2,213.11666666666667,0.2,213.31666666666666,0.03333333333333333,213.35,0.016666666666666666,213.36666666666667,1.5,left,12,0.2004750999622047
test_long,2,2,97,go,left,NA,0,weak,NA,NA,214.86666666666667,0.2,215.11666666666667,0.2,215.31666666666666,0.03333333333333333,215.35,0.016666666666666666,215.36666666666667,1.5,left,12,0.2003909999039024
test_long,2,2,98,nogo,right,NA,1,weak,NA,NA,216.86666666666667,0.2,217.11666666666667,0.2,217.31666666666666,0.03333333333333333,217.35,0.016666666666666666,217.36666666666667,1.5,left,12,0.19948220008518547
test_long,2,2,99,Rest,Rest,Rest,Rest,Rest,Rest,Rest,218.86666666666667,2.0,Rest,Rest,Rest,Rest,Rest,Rest,Rest,Rest,Rest,Rest,2.0
test_long,2,2,100,go,left,NA,0,strong,NA,NA,220.86666666666667,0.2,221.11666666666667,0.016666666666666666,221.13333333333333,0.03333333333333333,221.16666666666666,0.2,221.36666666666667,1.5,left,12,0.01693299994803965
test_long,2,2,101,nogo,right,NA,1,weak,NA,NA,222.86666666666667,0.2,223.11666666666667,0.2,223.31666666666666,0.03333333333333333,223.35,0.016666666666666666,223.36666666666667,1.5,left,12,0.19960849999915808
test_long,2,2,102,Rest,Rest,Rest,Rest,Rest,Rest,Rest,224.86666666666667,2.0,Rest,Rest,Rest,Rest,Rest,Rest,Rest,Rest,Rest,Rest,2.0
test_long,2,2,103,go,left,NA,0,weak,NA,NA,226.86666666666667,0.2,227.11666666666667,0.2,227.31666666666666,0.03333333333333333,227.35,0.016666666666666666,227.36666666666667,1.5,left,12,0.19963140005711466
test_long,2,2,104,nogo,right,NA,1,strong,NA,NA,228.86666666666667,0.2,229.11666666666667,0.016666666666666666,229.13333333333333,0.03333333333333333,229.16666666666666,0.2,229.36666666666667,1.5,left,12,0.01642520003952086
test_long,2,2,105,go,left,NA,0,strong,NA,NA,230.86666666666667,0.2,231.11666666666667,0.016666666666666666,231.13333333333333,0.03333333333333333,231.16666666666666,0.2,231.36666666666667,1.5,left,12,0.016723599983379245
test_long,2,2,106,nogo,right,NA,1,weak,NA,NA,232.86666666666667,0.2,233.11666666666667,0.2,233.31666666666666,0.03333333333333333,233.35,0.016666666666666666,233.36666666666667,1.5,left,12,0.2000475999666378
test_long,2,2,107,Rest,Rest,Rest,Rest,Rest,Rest,Rest,234.86666666666667,2.0,Rest,Rest,Rest,Rest,Rest,Rest,Rest,Rest,Rest,Rest,2.0
test_long,2,2,108,nogo,right,NA,1,strong,NA,NA,236.86666666666667,0.2,237.11666666666667,0.016666666666666666,237.13333333333333,0.03333333333333333,237.16666666666666,0.2,237.36666666666667,1.5,left,12,0.01660890004131943
test_long,2,2,109,catch,NA,NA,0,catch,NA,NA,238.86666666666667,0.2,239.11666666666667,0.0,239.11666666666667,0.0,239.11666666666667,0.25,239.36666666666667,1.5,left,12,1.9900035113096237e-05
test_long,2,2,110,Rest,Rest,Rest,Rest,Rest,Rest,Rest,240.86666666666667,2.0,Rest,Rest,Rest,Rest,Rest,Rest,Rest,Rest,Rest,Rest,2.0
test_long,2,2,111,go,left,NA,0,strong,NA,NA,242.86666666666667,0.2,243.11666666666667,0.016666666666666666,243.13333333333333,0.03333333333333333,243.16666666666666,0.2,243.36666666666667,1.5,left,12,0.01678950001951307
test_long,2,2,112,catch,NA,NA,0,catch,NA,NA,244.86666666666667,0.2,245.11666666666667,0.0,245.11666666666667,0.0,245.11666666666667,0.25,245.36666666666667,1.5,left,12,5.689996760338545e-05
test_long,2,2,113,nogo,right,NA,1,weak,NA,NA,246.86666666666667,0.2,247.11666666666667,0.2,247.31666666666666,0.03333333333333333,247.35,0.016666666666666666,247.36666666666667,1.5,left,12,0.1996369999833405
test_long,2,2,114,nogo,right,NA,1,strong,NA,NA,248.86666666666667,0.2,249.11666666666667,0.016666666666666666,249.13333333333333,0.03333333333333333,249.16666666666666,0.2,249.36666666666667,1.5,left,12,0.016824500053189695
test_long,2,2,115,go,left,NA,0,weak,NA,NA,250.86666666666667,0.2,251.11666666666667,0.2,251.31666666666666,0.03333333333333333,251.35,0.016666666666666666,251.36666666666667,1.5,left,12,0.199957900098525
test_long,2,2,116,nogo,right,NA,1,weak,NA,NA,252.86666666666667,0.2,253.11666666666667,0.2,253.31666666666666,0.03333333333333333,253.35,0.016666666666666666,253.36666666666667,1.5,left,12,0.19993649993557483
test_long,2,2,117,go,left,NA,0,weak,NA,NA,254.86666666666667,0.2,255.11666666666667,0.2,255.31666666666666,0.03333333333333333,255.35,0.016666666666666666,255.36666666666667,1.5,left,12,0.19896479998715222
test_long,2,2,118,catch,NA,NA,0,catch,NA,NA,256.8666666666667,0.2,257.1166666666667,0.0,257.1166666666667,0.0,257.1166666666667,0.25,257.3666666666667,1.5,left,12,2.329994458705187e-05
test_long,2,2,119,nogo,right,NA,1,weak,NA,NA,258.8666666666667,0.2,259.1166666666667,0.2,259.31666666666666,0.03333333333333333,259.35,0.016666666666666666,259.3666666666667,1.5,left,12,0.20040249999146909
test_long,2,2,120,go,left,NA,0,weak,NA,NA,260.8666666666667,0.2,261.1166666666667,0.2,261.31666666666666,0.03333333333333333,261.35,0.016666666666666666,261.3666666666667,1.5,left,12,0.19984850008040667
test_long,2,2,121,go,left,NA,0,weak,NA,NA,262.8666666666667,0.2,263.1166666666667,0.2,263.31666666666666,0.03333333333333333,263.35,0.016666666666666666,263.3666666666667,1.5,left,12,0.19937740010209382
test_long,2,2,122,Rest,Rest,Rest,Rest,Rest,Rest,Rest,264.8666666666667,2.0,Rest,Rest,Rest,Rest,Rest,Rest,Rest,Rest,Rest,Rest,2.0
test_long,2,2,123,nogo,right,NA,1,weak,NA,NA,266.8666666666667,0.2,267.1166666666667,0.2,267.31666666666666,0.03333333333333333,267.35,0.016666666666666666,267.3666666666667,1.5,left,12,0.20188120007514954
test_long,2,2,124,catch,NA,NA,0,catch,NA,NA,268.8666666666667,0.2,269.1166666666667,0.0,269.1166666666667,0.0,269.1166666666667,0.25,269.3666666666667,1.5,left,12,2.3399945348501205e-05
test_long,2,2,125,go,left,NA,0,weak,NA,NA,270.8666666666667,0.2,271.1166666666667,0.2,271.31666666666666,0.03333333333333333,271.35,0.016666666666666666,271.3666666666667,1.5,left,12,0.19984040001872927
test_long,2,2,126,nogo,right,NA,1,weak,NA,NA,277.1666666666667,0.2,277.4166666666667,0.2,277.6166666666667,0.03333333333333333,277.65,0.016666666666666666,277.6666666666667,1.5,left,12,0.2000660999910906
test_long,2,2,127,nogo,right,NA,1,strong,NA,NA,279.1666666666667,0.2,279.4166666666667,0.016666666666666666,279.43333333333334,0.03333333333333333,279.46666666666664,0.2,279.6666666666667,1.5,left,12,0.017112000030465424
test_long,2,2,128,nogo,right,NA,1,strong,NA,NA,281.1666666666667,0.2,281.4166666666667,0.016666666666666666,281.43333333333334,0.03333333333333333,281.46666666666664,0.2,281.6666666666667,1.5,left,12,0.0168979000300169
test_long,2,2,129,Rest,Rest,Rest,Rest,Rest,Rest,Rest,283.1666666666667,2.0,Rest,Rest,Rest,Rest,Rest,Rest,Rest,Rest,Rest,Rest,2.0
test_long,2,2,130,go,left,NA,0,weak,NA,NA,285.1666666666667,0.2,285.4166666666667,0.2,285.6166666666667,0.03333333333333333,285.65,0.016666666666666666,285.6666666666667,1.5,left,12,0.20011269999668002
test_long,2,2,131,nogo,right,NA,1,strong,NA,NA,287.1666666666667,0.2,287.4166666666667,0.016666666666666666,287.43333333333334,0.03333333333333333,287.46666666666664,0.2,287.6666666666667,1.5,left,12,0.016690900083631277
test_long,2,2,132,go,left,NA,0,strong,NA,NA,289.1666666666667,0.2,289.4166666666667,0.016666666666666666,289.43333333333334,0.03333333333333333,289.46666666666664,0.2,289.6666666666667,1.5,left,12,0.017225700081326067
test_long,2,2,133,Rest,Rest,Rest,Rest,Rest,Rest,Rest,291.1666666666667,2.0,Rest,Rest,Rest,Rest,Rest,Rest,Rest,Rest,Rest,Rest,2.0
test_long,2,2,134,go,left,NA,0,strong,NA,NA,293.1666666666667,0.2,293.4166666666667,0.016666666666666666,293.43333333333334,0.03333333333333333,293.46666666666664,0.2,293.6666666666667,1.5,left,12,0.017375299939885736
test_long,2,2,135,nogo,right,NA,1,strong,NA,NA,295.1666666666667,0.2,295.4166666666667,0.016666666666666666,295.43333333333334,0.03333333333333333,295.46666666666664,0.2,295.6666666666667,1.5,left,12,0.016077700071036816
test_long,2,2,136,go,left,NA,0,weak,NA,NA,297.1666666666667,0.2,297.4166666666667,0.2,297.6166666666667,0.03333333333333333,297.65,0.016666666666666666,297.6666666666667,1.5,left,12,0.1999544999562204
test_long,2,2,137,nogo,right,NA,1,strong,NA,NA,299.1666666666667,0.2,299.4166666666667,0.016666666666666666,299.43333333333334,0.03333333333333333,299.46666666666664,0.2,299.6666666666667,1.5,left,12,0.016397499945014715
test_long,2,2,138,Rest,Rest,Rest,Rest,Rest,Rest,Rest,301.1666666666667,2.0,Rest,Rest,Rest,Rest,Rest,Rest,Rest,Rest,Rest,Rest,2.0
test_long,2,2,139,go,left,NA,0,strong,NA,NA,303.1666666666667,0.2,303.4166666666667,0.016666666666666666,303.43333333333334,0.03333333333333333,303.46666666666664,0.2,303.6666666666667,1.5,left,12,0.01618039992172271
test_long,2,2,140,Rest,Rest,Rest,Rest,Rest,Rest,Rest,305.1666666666667,2.0,Rest,Rest,Rest,Rest,Rest,Rest,Rest,Rest,Rest,Rest,2.0
test_long,2,2,141,nogo,right,NA,1,weak,NA,NA,307.1666666666667,0.2,307.4166666666667,0.2,307.6166666666667,0.03333333333333333,307.65,0.016666666666666666,307.6666666666667,1.5,left,12,0.2003935999237001
test_long,2,2,142,go,left,NA,0,strong,NA,NA,309.1666666666667,0.2,309.4166666666667,0.016666666666666666,309.43333333333334,0.03333333333333333,309.46666666666664,0.2,309.6666666666667,1.5,left,12,0.016670200042426586
test_long,2,2,143,go,left,NA,0,weak,NA,NA,311.1666666666667,0.2,311.4166666666667,0.2,311.6166666666667,0.03333333333333333,311.65,0.016666666666666666,311.6666666666667,1.5,left,12,0.1996302999323234
test_long,2,2,144,Rest,Rest,Rest,Rest,Rest,Rest,Rest,313.1666666666667,2.0,Rest,Rest,Rest,Rest,Rest,Rest,Rest,Rest,Rest,Rest,2.0
test_long,2,2,145,go,left,NA,0,strong,NA,NA,315.1666666666667,0.2,315.4166666666667,0.016666666666666666,315.43333333333334,0.03333333333333333,315.46666666666664,0.2,315.6666666666667,1.5,left,12,0.017431700020097196
test_long,2,2,146,nogo,right,NA,1,weak,NA,NA,317.1666666666667,0.2,317.4166666666667,0.2,317.6166666666667,0.03333333333333333,317.65,0.016666666666666666,317.6666666666667,1.5,left,12,0.20021280006039888
test_long,2,2,147,catch,NA,NA,0,catch,NA,NA,319.1666666666667,0.2,319.4166666666667,0.0,319.4166666666667,0.0,319.4166666666667,0.25,319.6666666666667,1.5,left,12,2.289994154125452e-05
test_long,2,2,148,nogo,right,NA,1,weak,NA,NA,321.1666666666667,0.2,321.4166666666667,0.2,321.6166666666667,0.03333333333333333,321.65,0.016666666666666666,321.6666666666667,1.5,left,12,0.19988169998396188
test_long,2,2,149,nogo,right,NA,1,weak,NA,NA,323.1666666666667,0.2,323.4166666666667,0.2,323.6166666666667,0.03333333333333333,323.65,0.016666666666666666,323.6666666666667,1.5,left,12,0.19996090000495315
test_long,2,2,150,Rest,Rest,Rest,Rest,Rest,Rest,Rest,325.1666666666667,2.0,Rest,Rest,Rest,Rest,Rest,Rest,Rest,Rest,Rest,Rest,2.0
test_long,2,2,151,go,left,NA,0,strong,NA,NA,327.1666666666667,0.2,327.4166666666667,0.016666666666666666,327.43333333333334,0.03333333333333333,327.46666666666664,0.2,327.6666666666667,1.5,left,12,0.016358099994249642
test_long,2,2,152,catch,NA,NA,0,catch,NA,NA,329.1666666666667,0.2,329.4166666666667,0.0,329.4166666666667,0.0,329.4166666666667,0.25,329.6666666666667,1.5,left,12,2.219993621110916e-05
test_long,2,2,153,Rest,Rest,Rest,Rest,Rest,Rest,Rest,331.1666666666667,2.0,Rest,Rest,Rest,Rest,Rest,Rest,Rest,Rest,Rest,Rest,2.0
test_long,2,2,154,nogo,right,NA,1,weak,NA,NA,333.1666666666667,0.2,333.4166666666667,0.2,333.6166666666667,0.03333333333333333,333.65,0.016666666666666666,333.6666666666667,1.5,left,12,0.19990789995063096
test_long,2,2,155,nogo,right,NA,1,strong,NA,NA,335.1666666666667,0.2,335.4166666666667,0.016666666666666666,335.43333333333334,0.03333333333333333,335.46666666666664,0.2,335.6666666666667,1.5,left,12,0.017788700060918927
test_long,2,2,156,go,left,NA,0,strong,NA,NA,337.1666666666667,0.2,337.4166666666667,0.016666666666666666,337.43333333333334,0.03333333333333333,337.46666666666664,0.2,337.6666666666667,1.5,left,12,0.01746209990233183
test_long,2,2,157,go,left,NA,0,strong,NA,NA,339.1666666666667,0.2,339.4166666666667,0.016666666666666666,339.43333333333334,0.03333333333333333,339.46666666666664,0.2,339.6666666666667,1.5,left,12,0.019554700003936887
test_long,2,2,158,Rest,Rest,Rest,Rest,Rest,Rest,Rest,341.1666666666667,2.0,Rest,Rest,Rest,Rest,Rest,Rest,Rest,Rest,Rest,Rest,2.0
test_long,2,2,159,go,left,NA,0,weak,NA,NA,343.1666666666667,0.2,343.4166666666667,0.2,343.6166666666667,0.03333333333333333,343.65,0.016666666666666666,343.6666666666667,1.5,left,12,0.20021679997444153
test_long,2,2,160,go,left,NA,0,strong,NA,NA,345.1666666666667,0.2,345.4166666666667,0.016666666666666666,345.43333333333334,0.03333333333333333,345.46666666666664,0.2,345.6666666666667,1.5,left,12,0.01626489998307079
test_long,2,2,161,nogo,right,NA,1,strong,NA,NA,347.1666666666667,0.2,347.4166666666667,0.016666666666666666,347.43333333333334,0.03333333333333333,347.46666666666664,0.2,347.6666666666667,1.5,left,12,0.01584869995713234
test_long,2,2,162,go,left,NA,0,weak,NA,NA,349.1666666666667,0.2,349.4166666666667,0.2,349.6166666666667,0.03333333333333333,349.65,0.016666666666666666,349.6666666666667,1.5,left,12,0.20108949998393655
test_long,2,2,163,go,left,NA,0,strong,NA,NA,351.1666666666667,0.2,351.4166666666667,0.016666666666666666,351.43333333333334,0.03333333333333333,351.46666666666664,0.2,351.6666666666667,1.5,left,12,0.016711600008420646
test_long,2,2,164,nogo,right,NA,1,strong,NA,NA,353.1666666666667,0.2,353.4166666666667,0.016666666666666666,353.43333333333334,0.03333333333333333,353.46666666666664,0.2,353.6666666666667,1.5,left,12,0.016335399937815964
test_long,2,2,165,nogo,right,NA,1,weak,NA,NA,355.1666666666667,0.2,355.4166666666667,0.2,355.6166666666667,0.03333333333333333,355.65,0.016666666666666666,355.6666666666667,1.5,left,12,0.1999902999959886
test_long,2,2,166,go,left,NA,0,strong,NA,NA,357.1666666666667,0.2,357.4166666666667,0.016666666666666666,357.43333333333334,0.03333333333333333,357.46666666666664,0.2,357.6666666666667,1.5,left,12,0.016530799912288785
test_long,2,2,167,catch,NA,NA,0,catch,NA,NA,359.1666666666667,0.2,359.4166666666667,0.0,359.4166666666667,0.0,359.4166666666667,0.25,359.6666666666667,1.5,left,12,2.519995905458927e-05
test_long,2,2,168,Rest,Rest,Rest,Rest,Rest,Rest,Rest,361.1666666666667,2.0,Rest,Rest,Rest,Rest,Rest,Rest,Rest,Rest,Rest,Rest,2.0
test_long,2,2,169,go,left,NA,0,strong,NA,NA,363.1666666666667,0.2,363.4166666666667,0.016666666666666666,363.43333333333334,0.03333333333333333,363.46666666666664,0.2,363.6666666666667,1.5,left,12,0.018003899953328073
test_long,2,2,170,Rest,Rest,Rest,Rest,Rest,Rest,Rest,365.1666666666667,2.0,Rest,Rest,Rest,Rest,Rest,Rest,Rest,Rest,Rest,Rest,2.0
test_long,2,2,171,nogo,right,NA,1,strong,NA,NA,367.1666666666667,0.2,367.4166666666667,0.016666666666666666,367.43333333333334,0.03333333333333333,367.46666666666664,0.2,367.6666666666667,1.5,left,12,0.016785999992862344
test_long,2,2,172,nogo,right,NA,1,strong,NA,NA,369.1666666666667,0.2,369.4166666666667,0.016666666666666666,369.43333333333334,0.03333333333333333,369.46666666666664,0.2,369.6666666666667,1.5,left,12,0.01700430002529174
