subid,run,trial,trial_type,side,response,correct,strength,response_time,cumulative_response_time,fixation_onset,fixation_dur,stim_onset,stim_dur,blank_onset,blank_dur,mask_onset,mask_dur,response_onset,response_dur,go_side,Staircase_stimulus,Presentation Duration
test,3,1,nogo,right,left,0,weak,0.402,1.048,0.0,0.2,0.25,0.2,0.45,0.03333333333333333,0.48333333333333334,0.016666666666666666,0.5,1.3,left,12,0.25186640000902116
test,3,2,nogo,right,left,0,strong,0.692,3.34,1.8,0.2,2.05,0.016666666666666666,2.066666666666667,0.03333333333333333,2.1,0.2,2.3,1.3,left,12,0.02470149999135174
test,3,3,Rest,Rest,Rest,Rest,Rest,Rest,Rest,3.6,1.8,Rest,Rest,Rest,Rest,Rest,Rest,Rest,Rest,Rest,Rest,1.8
test,3,4,catch,NA,left,1,catch,0.585,7.425,5.4,0.2,5.65,0.0,5.65,0.0,5.65,0.25,5.9,1.3,left,12,6.340001709759235e-05
test,3,5,go,left,left,1,strong,0.595,9.427,7.2,0.2,7.45,0.016666666666666666,7.466666666666667,0.03333333333333333,7.5,0.2,7.7,1.3,left,12,0.023719499993603677
test,3,6,go,left,left,1,strong,0.482,11.321,9.0,0.2,9.25,0.016666666666666666,9.266666666666667,0.03333333333333333,9.3,0.2,9.5,1.3,left,12,0.022378699999535456
test,3,7,Rest,Rest,Rest,Rest,Rest,Rest,Rest,10.8,1.8,Rest,Rest,Rest,Rest,Rest,Rest,Rest,Rest,Rest,Rest,1.8
test,3,8,go,left,left,1,strong,0.501,15.592,12.6,0.2,12.85,0.016666666666666666,12.866666666666667,0.03333333333333333,12.9,0.2,13.1,1.3,left,12,0.026166099996771663
test,3,9,nogo,right,right,1,strong,0.395,17.485,14.4,0.2,14.65,0.016666666666666666,14.666666666666666,0.03333333333333333,14.7,0.2,14.9,1.3,left,12,0.023552600003313273
test,3,10,go,left,left,1,weak,0.398,19.715,16.2,0.2,16.45,0.2,16.65,0.03333333333333333,16.683333333333334,0.016666666666666666,16.7,1.3,left,12,0.24533390000578947
test,3,11,nogo,right,left,0,strong,0.414,21.73,18.0,0.2,18.25,0.016666666666666666,18.266666666666666,0.03333333333333333,18.3,0.2,18.5,1.3,left,12,0.01880590000655502
test,3,12,nogo,right,left,0,strong,0.421,23.738,19.8,0.2,20.05,0.016666666666666666,20.066666666666666,0.03333333333333333,20.1,0.2,20.3,1.3,left,12,0.01992629998130724
test,3,13,nogo,right,NA,1,weak,NA,NA,21.6,0.2,21.85,0.2,22.05,0.03333333333333333,22.083333333333332,0.016666666666666666,22.1,1.3,left,12,0.2509391999919899
test,3,14,Rest,Rest,Rest,Rest,Rest,Rest,Rest,23.4,1.8,Rest,Rest,Rest,Rest,Rest,Rest,Rest,Rest,Rest,Rest,1.8
test,3,15,nogo,right,NA,1,weak,NA,NA,25.2,0.2,25.45,0.2,25.65,0.03333333333333333,25.683333333333334,0.016666666666666666,25.7,1.3,left,12,0.24948299999232404
test,3,16,go,left,left,1,strong,0.44,32.465,27.0,0.2,27.25,0.016666666666666666,27.266666666666666,0.03333333333333333,27.3,0.2,27.5,1.3,left,12,0.020711799996206537
test,3,17,nogo,right,left,0,weak,0.42,34.667,28.8,0.2,29.05,0.2,29.25,0.03333333333333333,29.283333333333335,0.016666666666666666,29.3,1.3,left,12,0.2495080000080634
test,3,18,nogo,right,NA,1,strong,NA,NA,30.6,0.2,30.85,0.016666666666666666,30.866666666666667,0.03333333333333333,30.9,0.2,31.1,1.3,left,12,0.021237900014966726
test,3,19,go,left,NA,0,weak,NA,NA,32.4,0.2,32.65,0.2,32.85,0.03333333333333333,32.88333333333333,0.016666666666666666,32.9,1.3,left,12,0.2549581999774091
test,3,20,nogo,right,NA,1,weak,NA,NA,34.2,0.2,34.45,0.2,34.65,0.03333333333333333,34.68333333333333,0.016666666666666666,34.7,1.3,left,12,0.24734800000442192
test,3,21,go,left,NA,0,strong,NA,NA,36.0,0.2,36.25,0.016666666666666666,36.266666666666666,0.03333333333333333,36.3,0.2,36.5,1.3,left,12,0.026462199981324375
test,3,22,go,left,NA,0,weak,NA,NA,37.8,0.2,38.05,0.2,38.25,0.03333333333333333,38.28333333333333,0.016666666666666666,38.3,1.3,left,12,0.24877310000010766
test,3,23,go,left,NA,0,strong,NA,NA,39.6,0.2,39.85,0.016666666666666666,39.86666666666667,0.03333333333333333,39.9,0.2,40.1,1.3,left,12,0.019643899984657764
test,3,24,go,left,NA,0,weak,NA,NA,41.4,0.2,41.65,0.2,41.85,0.03333333333333333,41.88333333333333,0.016666666666666666,41.9,1.3,left,12,0.24594269998488016
test,3,25,nogo,right,NA,1,strong,NA,NA,43.2,0.2,43.45,0.016666666666666666,43.46666666666667,0.03333333333333333,43.5,0.2,43.7,1.3,left,12,0.02416950001497753
test,3,26,nogo,right,NA,1,weak,NA,NA,45.0,0.2,45.25,0.2,45.45,0.03333333333333333,45.483333333333334,0.016666666666666666,45.5,1.3,left,12,0.25126190000446513
test,3,27,catch,NA,NA,0,catch,NA,NA,46.8,0.2,47.05,0.0,47.05,0.0,47.05,0.25,47.3,1.3,left,12,5.169998621568084e-05
test,3,28,nogo,right,NA,1,weak,NA,NA,48.6,0.2,48.85,0.2,49.05,0.03333333333333333,49.083333333333336,0.016666666666666666,49.1,1.3,left,12,0.2515457000117749
test,3,29,nogo,right,NA,1,strong,NA,NA,50.4,0.2,50.65,0.016666666666666666,50.666666666666664,0.03333333333333333,50.7,0.2,50.9,1.3,left,12,0.01931150001473725
test,3,30,catch,NA,NA,0,catch,NA,NA,52.2,0.2,52.45,0.0,52.45,0.0,52.45,0.25,52.7,1.3,left,12,3.6999990697950125e-05
test,3,31,go,left,NA,0,weak,NA,NA,54.0,0.2,54.25,0.2,54.45,0.03333333333333333,54.483333333333334,0.016666666666666666,54.5,1.3,left,12,0.2608325000037439
test,3,32,Rest,Rest,Rest,Rest,Rest,Rest,Rest,55.8,1.8,Rest,Rest,Rest,Rest,Rest,Rest,Rest,Rest,Rest,Rest,1.8
test,3,33,nogo,right,NA,1,strong,NA,NA,57.6,0.2,57.85,0.016666666666666666,57.86666666666667,0.03333333333333333,57.9,0.2,58.1,1.3,left,12,0.022527200024342164
test,3,34,Rest,Rest,Rest,Rest,Rest,Rest,Rest,59.4,1.8,Rest,Rest,Rest,Rest,Rest,Rest,Rest,Rest,Rest,Rest,1.8
test,3,35,go,left,NA,0,weak,NA,NA,61.2,0.2,61.45,0.2,61.65,0.03333333333333333,61.68333333333333,0.016666666666666666,61.7,1.3,left,12,0.24917830000049435
test,3,36,go,left,NA,0,strong,NA,NA,63.0,0.2,63.25,0.016666666666666666,63.266666666666666,0.03333333333333333,63.3,0.2,63.5,1.3,left,12,0.0286750000086613
test,3,37,go,left,NA,0,weak,NA,NA,64.8,0.2,65.05,0.2,65.25,0.03333333333333333,65.28333333333333,0.016666666666666666,65.3,1.3,left,12,0.24625150000792928
test,3,38,Rest,Rest,Rest,Rest,Rest,Rest,Rest,66.6,1.8,Rest,Rest,Rest,Rest,Rest,Rest,Rest,Rest,Rest,Rest,1.8
test,3,39,go,left,NA,0,strong,NA,NA,68.4,0.2,68.65,0.016666666666666666,68.66666666666667,0.03333333333333333,68.7,0.2,68.9,1.3,left,12,0.019359400001121685
test,3,40,go,left,NA,0,weak,NA,NA,70.2,0.2,70.45,0.2,70.65,0.03333333333333333,70.68333333333334,0.016666666666666666,70.7,1.3,left,12,0.338925099989865
test,3,41,Rest,Rest,Rest,Rest,Rest,Rest,Rest,72.0,5.4,Rest,Rest,Rest,Rest,Rest,Rest,Rest,Rest,Rest,Rest,5.4
test,3,42,nogo,right,NA,1,weak,NA,NA,77.4,0.2,77.65,0.2,77.85,0.03333333333333333,77.88333333333334,0.016666666666666666,77.9,1.3,left,12,0.2500789000187069
test,3,43,catch,NA,NA,0,catch,NA,NA,79.2,0.2,79.45,0.0,79.45,0.0,79.45,0.25,79.7,1.3,left,12,6.520000169984996e-05
test,3,1,go,left,NA,0,strong,NA,NA,83.2,0.2,83.45,0.016666666666666666,83.46666666666667,0.03333333333333333,83.5,0.2,83.7,1.3,left,12,0.020044000004418194
test,3,2,Rest,Rest,Rest,Rest,Rest,Rest,Rest,85.0,1.8,Rest,Rest,Rest,Rest,Rest,Rest,Rest,Rest,Rest,Rest,1.8
test,3,3,nogo,right,NA,1,weak,NA,NA,86.8,0.2,87.05,0.2,87.25,0.03333333333333333,87.28333333333333,0.016666666666666666,87.3,1.3,left,12,0.2552121999906376
test,3,4,catch,NA,NA,0,catch,NA,NA,88.6,0.2,88.85,0.0,88.85,0.0,88.85,0.25,89.1,1.3,left,12,3.5900011425837874e-05
test,3,5,nogo,right,NA,1,strong,NA,NA,90.4,0.2,90.65,0.016666666666666666,90.66666666666667,0.03333333333333333,90.7,0.2,90.9,1.3,left,12,0.020905899989884347
test,3,6,go,left,NA,0,weak,NA,NA,92.2,0.2,92.45,0.2,92.65,0.03333333333333333,92.68333333333334,0.016666666666666666,92.7,1.3,left,12,0.24990059999981895
test,3,7,go,left,NA,0,strong,NA,NA,94.0,0.2,94.25,0.016666666666666666,94.26666666666667,0.03333333333333333,94.3,0.2,94.5,1.3,left,12,0.023364100023172796
test,3,8,go,left,NA,0,strong,NA,NA,95.8,0.2,96.05,0.016666666666666666,96.06666666666666,0.03333333333333333,96.1,0.2,96.3,1.3,left,12,0.02010550000704825
test,3,9,Rest,Rest,Rest,Rest,Rest,Rest,Rest,97.6,1.8,Rest,Rest,Rest,Rest,Rest,Rest,Rest,Rest,Rest,Rest,1.8
test,3,10,catch,NA,NA,0,catch,NA,NA,99.4,0.2,99.65,0.0,99.65,0.0,99.65,0.25,99.9,1.3,left,12,4.39999857917428e-05
test,3,11,nogo,right,NA,1,weak,NA,NA,101.2,0.2,101.45,0.2,101.65,0.03333333333333333,101.68333333333334,0.016666666666666666,101.7,1.3,left,12,0.3078924000146799
test,3,12,go,left,NA,0,weak,NA,NA,103.0,0.2,103.25,0.2,103.45,0.03333333333333333,103.48333333333333,0.016666666666666666,103.5,1.3,left,12,0.2569665999908466
test,3,13,go,left,NA,0,weak,NA,NA,104.8,0.2,105.05,0.2,105.25,0.03333333333333333,105.28333333333333,0.016666666666666666,105.3,1.3,left,12,0.26118400000268593
test,3,14,go,left,NA,0,weak,NA,NA,106.6,0.2,106.85,0.2,107.05,0.03333333333333333,107.08333333333333,0.016666666666666666,107.1,1.3,left,12,0.2518642999930307
test,3,15,nogo,right,NA,1,strong,NA,NA,108.4,0.2,108.65,0.016666666666666666,108.66666666666667,0.03333333333333333,108.7,0.2,108.9,1.3,left,12,0.02390729999751784
test,3,16,Rest,Rest,Rest,Rest,Rest,Rest,Rest,110.2,1.8,Rest,Rest,Rest,Rest,Rest,Rest,Rest,Rest,Rest,Rest,1.8
test,3,17,nogo,right,NA,1,weak,NA,NA,112.0,0.2,112.25,0.2,112.45,0.03333333333333333,112.48333333333333,0.016666666666666666,112.5,1.3,left,12,0.2424065000086557
test,3,18,go,left,NA,0,weak,NA,NA,113.8,0.2,114.05,0.2,114.25,0.03333333333333333,114.28333333333333,0.016666666666666666,114.3,1.3,left,12,0.23714439998730086
test,3,19,Rest,Rest,Rest,Rest,Rest,Rest,Rest,115.6,1.8,Rest,Rest,Rest,Rest,Rest,Rest,Rest,Rest,Rest,Rest,1.8
test,3,20,nogo,right,NA,1,strong,NA,NA,117.4,0.2,117.65,0.016666666666666666,117.66666666666667,0.03333333333333333,117.7,0.2,117.9,1.3,left,12,0.02183149999473244
test,3,21,nogo,right,NA,1,strong,NA,NA,119.2,0.2,119.45,0.016666666666666666,119.46666666666667,0.03333333333333333,119.5,0.2,119.7,1.3,left,12,0.022857500007376075
test,3,22,catch,NA,NA,0,catch,NA,NA,121.0,0.2,121.25,0.0,121.25,0.0,121.25,0.25,121.5,1.3,left,12,2.139998832717538e-05
test,3,23,catch,NA,NA,0,catch,NA,NA,122.8,0.2,123.05,0.0,123.05,0.0,123.05,0.25,123.3,1.3,left,12,3.969998215325177e-05
test,3,24,nogo,right,NA,1,weak,NA,NA,124.6,0.2,124.85,0.2,125.05,0.03333333333333333,125.08333333333333,0.016666666666666666,125.1,1.3,left,12,0.2540615999896545
test,3,25,go,left,NA,0,strong,NA,NA,126.4,0.2,126.65,0.016666666666666666,126.66666666666667,0.03333333333333333,126.7,0.2,126.9,1.3,left,12,0.01974239997798577
test,3,26,nogo,right,NA,1,weak,NA,NA,128.2,0.2,128.45,0.2,128.65,0.03333333333333333,128.68333333333334,0.016666666666666666,128.7,1.3,left,12,0.25052839997806586
test,3,27,Rest,Rest,Rest,Rest,Rest,Rest,Rest,130.0,1.8,Rest,Rest,Rest,Rest,Rest,Rest,Rest,Rest,Rest,Rest,1.8
test,3,28,go,left,NA,0,weak,NA,NA,131.8,0.2,132.05,0.2,132.25,0.03333333333333333,132.28333333333333,0.016666666666666666,132.3,1.3,left,12,0.248852499993518
test,3,29,go,left,NA,0,strong,NA,NA,133.6,0.2,133.85,0.016666666666666666,133.86666666666667,0.03333333333333333,133.9,0.2,134.1,1.3,left,12,0.02404920000117272
test,3,30,Rest,Rest,Rest,Rest,Rest,Rest,Rest,135.4,1.8,Rest,Rest,Rest,Rest,Rest,Rest,Rest,Rest,Rest,Rest,1.8
test,3,31,go,left,NA,0,strong,NA,NA,137.2,0.2,137.45,0.016666666666666666,137.46666666666667,0.03333333333333333,137.5,0.2,137.7,1.3,left,12,0.02458440000191331
test,3,32,go,left,NA,0,strong,NA,NA,139.0,0.2,139.25,0.016666666666666666,139.26666666666668,0.03333333333333333,139.3,0.2,139.5,1.3,left,12,0.020820300007471815
test,3,33,Rest,Rest,Rest,Rest,Rest,Rest,Rest,140.8,3.6,Rest,Rest,Rest,Rest,Rest,Rest,Rest,Rest,Rest,Rest,3.6
test,3,34,nogo,right,NA,1,weak,NA,NA,144.4,0.2,144.65,0.2,144.85,0.03333333333333333,144.88333333333333,0.016666666666666666,144.9,1.3,left,12,0.2449893000011798
test,3,35,nogo,right,NA,1,weak,NA,NA,146.2,0.2,146.45,0.2,146.65,0.03333333333333333,146.68333333333334,0.016666666666666666,146.7,1.3,left,12,0.24532600000384264
test,3,36,nogo,right,left,0,strong,0.601,179.309,148.0,0.2,148.25,0.016666666666666666,148.26666666666668,0.03333333333333333,148.3,0.2,148.5,1.3,left,12,0.020400800014613196
test,3,37,nogo,right,left,0,weak,0.649,181.591,149.8,0.2,150.05,0.2,150.25,0.03333333333333333,150.28333333333333,0.016666666666666666,150.3,1.3,left,12,0.25220400001853704
test,3,38,go,left,left,1,weak,0.603,183.803,151.6,0.2,151.85,0.2,152.05,0.03333333333333333,152.08333333333334,0.016666666666666666,152.1,1.3,left,12,0.25058930000523105
test,3,39,nogo,right,left,0,strong,0.773,185.967,153.4,0.2,153.65,0.016666666666666666,153.66666666666666,0.03333333333333333,153.7,0.2,153.9,1.3,left,12,0.017745999997714534
test,3,40,go,left,left,1,weak,0.526,187.951,155.2,0.2,155.45,0.2,155.65,0.03333333333333333,155.68333333333334,0.016666666666666666,155.7,1.3,left,12,0.24487720002071
test,3,41,nogo,right,left,0,strong,0.811,190.235,157.0,0.2,157.25,0.016666666666666666,157.26666666666668,0.03333333333333333,157.3,0.2,157.5,1.3,left,12,0.020080799993593246
test,3,42,Rest,Rest,Rest,Rest,Rest,Rest,Rest,158.8,1.8,Rest,Rest,Rest,Rest,Rest,Rest,Rest,Rest,Rest,Rest,1.8
test,3,43,nogo,right,left,0,strong,0.538,194.216,160.6,0.2,160.85,0.016666666666666666,160.86666666666667,0.03333333333333333,160.9,0.2,161.1,1.3,left,12,0.019996799994260073
test,3,44,go,left,left,1,strong,0.502,196.174,162.4,0.2,162.65,0.016666666666666666,162.66666666666666,0.03333333333333333,162.7,0.2,162.9,1.3,left,12,0.020355299988295883
test,3,1,go,left,NA,0,weak,NA,NA,168.4,0.2,168.65,0.2,168.85,0.03333333333333333,168.88333333333333,0.016666666666666666,168.9,1.3,left,12,0.24377080000704154
test,3,2,nogo,right,NA,1,strong,NA,NA,170.2,0.2,170.45,0.016666666666666666,170.46666666666667,0.03333333333333333,170.5,0.2,170.7,1.3,left,12,0.017367899999953806
test,3,3,Rest,Rest,Rest,Rest,Rest,Rest,Rest,172.0,1.8,Rest,Rest,Rest,Rest,Rest,Rest,Rest,Rest,Rest,Rest,1.8
test,3,4,nogo,right,NA,1,weak,NA,NA,173.8,0.2,174.05,0.2,174.25,0.03333333333333333,174.28333333333333,0.016666666666666666,174.3,1.3,left,12,0.2518545000057202
test,3,5,go,left,NA,0,weak,NA,NA,175.6,0.2,175.85,0.2,176.05,0.03333333333333333,176.08333333333334,0.016666666666666666,176.1,1.3,left,12,0.2503470999945421
test,3,6,go,left,NA,0,strong,NA,NA,177.4,0.2,177.65,0.016666666666666666,177.66666666666666,0.03333333333333333,177.7,0.2,177.9,1.3,left,12,0.019956699979957193
test,3,7,nogo,right,NA,1,strong,NA,NA,179.2,0.2,179.45,0.016666666666666666,179.46666666666667,0.03333333333333333,179.5,0.2,179.7,1.3,left,12,0.019307600014144555
test,3,8,go,left,NA,0,strong,NA,NA,181.0,0.2,181.25,0.016666666666666666,181.26666666666668,0.03333333333333333,181.3,0.2,181.5,1.3,left,12,0.025656499987235293
test,3,9,go,left,NA,0,weak,NA,NA,182.8,0.2,183.05,0.2,183.25,0.03333333333333333,183.28333333333333,0.016666666666666666,183.3,1.3,left,12,0.24798089999239892
test,3,10,go,left,NA,0,weak,NA,NA,184.6,0.2,184.85,0.2,185.05,0.03333333333333333,185.08333333333334,0.016666666666666666,185.1,1.3,left,12,0.25062240002444014
test,3,11,nogo,right,NA,1,weak,NA,NA,186.4,0.2,186.65,0.2,186.85,0.03333333333333333,186.88333333333333,0.016666666666666666,186.9,1.3,left,12,0.25946079997811466
test,3,12,nogo,right,NA,1,strong,NA,NA,188.2,0.2,188.45,0.016666666666666666,188.46666666666667,0.03333333333333333,188.5,0.2,188.7,1.3,left,12,0.023664800013648346
test,3,13,nogo,right,NA,1,weak,NA,NA,190.0,0.2,190.25,0.2,190.45,0.03333333333333333,190.48333333333332,0.016666666666666666,190.5,1.3,left,12,0.2512904000177514
test,3,14,go,left,NA,0,strong,NA,NA,191.8,0.2,192.05,0.016666666666666666,192.06666666666666,0.03333333333333333,192.1,0.2,192.3,1.3,left,12,0.019355299999006093
test,3,15,nogo,right,NA,1,strong,NA,NA,193.6,0.2,193.85,0.016666666666666666,193.86666666666667,0.03333333333333333,193.9,0.2,194.1,1.3,left,12,0.022322300006635487
test,3,16,go,left,NA,0,strong,NA,NA,195.4,0.2,195.65,0.016666666666666666,195.66666666666666,0.03333333333333333,195.7,0.2,195.9,1.3,left,12,0.01888139999937266
test,3,17,go,left,NA,0,strong,NA,NA,197.2,0.2,197.45,0.016666666666666666,197.46666666666667,0.03333333333333333,197.5,0.2,197.7,1.3,left,12,0.019327100017108023
test,3,18,go,left,NA,0,strong,NA,NA,199.0,0.2,199.25,0.016666666666666666,199.26666666666668,0.03333333333333333,199.3,0.2,199.5,1.3,left,12,0.019850000011501834
test,3,19,catch,NA,NA,0,catch,NA,NA,200.8,0.2,201.05,0.0,201.05,0.0,201.05,0.25,201.3,1.3,left,12,3.399999695830047e-05
test,3,20,go,left,NA,0,weak,NA,NA,202.6,0.2,202.85,0.2,203.05,0.03333333333333333,203.08333333333334,0.016666666666666666,203.1,1.3,left,12,0.24738509999588132
test,3,21,nogo,right,NA,1,strong,NA,NA,204.4,0.2,204.65,0.016666666666666666,204.66666666666666,0.03333333333333333,204.7,0.2,204.9,1.3,left,12,0.019403899990720674
test,3,22,Rest,Rest,Rest,Rest,Rest,Rest,Rest,206.2,3.6,Rest,Rest,Rest,Rest,Rest,Rest,Rest,Rest,Rest,Rest,3.6
test,3,23,nogo,right,NA,1,strong,NA,NA,209.8,0.2,210.05,0.016666666666666666,210.06666666666666,0.03333333333333333,210.1,0.2,210.3,1.3,left,12,0.018013799999607727
test,3,24,Rest,Rest,Rest,Rest,Rest,Rest,Rest,211.6,1.8,Rest,Rest,Rest,Rest,Rest,Rest,Rest,Rest,Rest,Rest,1.8
test,3,25,go,left,NA,0,strong,NA,NA,213.4,0.2,213.65,0.016666666666666666,213.66666666666666,0.03333333333333333,213.7,0.2,213.9,1.3,left,12,0.017378899996401742
test,3,26,Rest,Rest,Rest,Rest,Rest,Rest,Rest,215.2,1.8,Rest,Rest,Rest,Rest,Rest,Rest,Rest,Rest,Rest,Rest,1.8
test,3,27,nogo,right,NA,1,weak,NA,NA,217.0,0.2,217.25,0.2,217.45,0.03333333333333333,217.48333333333332,0.016666666666666666,217.5,1.3,left,12,0.2492052000015974
test,3,28,nogo,right,NA,1,strong,NA,NA,218.8,0.2,219.05,0.016666666666666666,219.06666666666666,0.03333333333333333,219.1,0.2,219.3,1.3,left,12,0.02007559998310171
test,3,29,Rest,Rest,Rest,Rest,Rest,Rest,Rest,220.6,1.8,Rest,Rest,Rest,Rest,Rest,Rest,Rest,Rest,Rest,Rest,1.8
test,3,30,go,left,NA,0,weak,NA,NA,222.4,0.2,222.65,0.2,222.85,0.03333333333333333,222.88333333333333,0.016666666666666666,222.9,1.3,left,12,0.2538672999944538
test,3,31,nogo,right,NA,1,weak,NA,NA,224.2,0.2,224.45,0.2,224.65,0.03333333333333333,224.68333333333334,0.016666666666666666,224.7,1.3,left,12,0.2459458000084851
test,3,32,nogo,right,NA,1,weak,NA,NA,226.0,0.2,226.25,0.2,226.45,0.03333333333333333,226.48333333333332,0.016666666666666666,226.5,1.3,left,12,0.26836590000311844
test,3,33,Rest,Rest,Rest,Rest,Rest,Rest,Rest,227.8,1.8,Rest,Rest,Rest,Rest,Rest,Rest,Rest,Rest,Rest,Rest,1.8
test,3,34,go,left,NA,0,weak,NA,NA,229.6,0.2,229.85,0.2,230.05,0.03333333333333333,230.08333333333334,0.016666666666666666,230.1,1.3,left,12,0.24463490000925958
test,3,35,catch,NA,NA,0,catch,NA,NA,231.4,0.2,231.65,0.0,231.65,0.0,231.65,0.25,231.9,1.3,left,12,2.81000102404505e-05
test,3,36,Rest,Rest,Rest,Rest,Rest,Rest,Rest,233.2,1.8,Rest,Rest,Rest,Rest,Rest,Rest,Rest,Rest,Rest,Rest,1.8
test,3,37,catch,NA,NA,0,catch,NA,NA,235.0,0.2,235.25,0.0,235.25,0.0,235.25,0.25,235.5,1.3,left,12,2.4500011932104826e-05
test,3,38,nogo,right,NA,1,strong,NA,NA,236.8,0.2,237.05,0.016666666666666666,237.06666666666666,0.03333333333333333,237.1,0.2,237.3,1.3,left,12,0.016652199992677197
test,3,39,nogo,right,NA,1,weak,NA,NA,238.6,0.2,238.85,0.2,239.05,0.03333333333333333,239.08333333333334,0.016666666666666666,239.1,1.3,left,12,0.24646090000169352
test,3,40,nogo,right,NA,1,weak,NA,NA,240.4,0.2,240.65,0.2,240.85,0.03333333333333333,240.88333333333333,0.016666666666666666,240.9,1.3,left,12,0.23614219998125918
test,3,41,go,left,NA,0,strong,NA,NA,242.2,0.2,242.45,0.016666666666666666,242.46666666666667,0.03333333333333333,242.5,0.2,242.7,1.3,left,12,0.01956319998134859
test,3,42,catch,NA,NA,0,catch,NA,NA,244.0,0.2,244.25,0.0,244.25,0.0,244.25,0.25,244.5,1.3,left,12,6.849999772384763e-05
test,3,43,go,left,NA,0,weak,NA,NA,245.8,0.2,246.05,0.2,246.25,0.03333333333333333,246.28333333333333,0.016666666666666666,246.3,1.3,left,12,0.24658060001092963
test,3,44,Rest,Rest,Rest,Rest,Rest,Rest,Rest,247.6,1.8,Rest,Rest,Rest,Rest,Rest,Rest,Rest,Rest,Rest,Rest,1.8
test,3,1,catch,NA,NA,0,catch,NA,NA,252.6,0.2,252.85,0.0,252.85,0.0,252.85,0.25,253.1,1.3,left,12,2.0700012100860476e-05
test,3,2,nogo,right,NA,1,weak,NA,NA,254.4,0.2,254.65,0.2,254.85,0.03333333333333333,254.88333333333333,0.016666666666666666,254.9,1.3,left,12,0.24824220000300556
test,3,3,catch,NA,NA,0,catch,NA,NA,256.2,0.2,256.45,0.0,256.45,0.0,256.45,0.25,256.7,1.3,left,12,4.430001717992127e-05
test,3,4,nogo,right,NA,1,strong,NA,NA,258.0,0.2,258.25,0.016666666666666666,258.26666666666665,0.03333333333333333,258.3,0.2,258.5,1.3,left,12,0.021481400006450713
test,3,5,nogo,right,NA,1,strong,NA,NA,259.8,0.2,260.05,0.016666666666666666,260.06666666666666,0.03333333333333333,260.1,0.2,260.3,1.3,left,12,0.016123800014611334
test,3,6,nogo,right,NA,1,weak,NA,NA,261.6,0.2,261.85,0.2,262.05,0.03333333333333333,262.0833333333333,0.016666666666666666,262.1,1.3,left,12,0.24059880001004785
test,3,7,Rest,Rest,Rest,Rest,Rest,Rest,Rest,263.4,1.8,Rest,Rest,Rest,Rest,Rest,Rest,Rest,Rest,Rest,Rest,1.8
test,3,8,catch,NA,NA,0,catch,NA,NA,265.2,0.2,265.45,0.0,265.45,0.0,265.45,0.25,265.7,1.3,left,12,5.699999746866524e-05
test,3,9,go,left,NA,0,strong,NA,NA,267.0,0.2,267.25,0.016666666666666666,267.26666666666665,0.03333333333333333,267.3,0.2,267.5,1.3,left,12,0.021294300007866696
test,3,10,nogo,right,NA,1,strong,NA,NA,268.8,0.2,269.05,0.016666666666666666,269.06666666666666,0.03333333333333333,269.1,0.2,269.3,1.3,left,12,0.021369599999161437
test,3,11,Rest,Rest,Rest,Rest,Rest,Rest,Rest,270.6,1.8,Rest,Rest,Rest,Rest,Rest,Rest,Rest,Rest,Rest,Rest,1.8
test,3,12,go,left,NA,0,weak,NA,NA,272.4,0.2,272.65,0.2,272.85,0.03333333333333333,272.8833333333333,0.016666666666666666,272.9,1.3,left,12,0.2555605999950785
test,3,13,go,left,NA,0,strong,NA,NA,274.2,0.2,274.45,0.016666666666666666,274.46666666666664,0.03333333333333333,274.5,0.2,274.7,1.3,left,12,0.022012900008121505
test,3,14,go,left,NA,0,strong,NA,NA,276.0,0.2,276.25,0.016666666666666666,276.26666666666665,0.03333333333333333,276.3,0.2,276.5,1.3,left,12,0.022156699997140095
test,3,15,nogo,right,NA,1,strong,NA,NA,277.8,0.2,278.05,0.016666666666666666,278.06666666666666,0.03333333333333333,278.1,0.2,278.3,1.3,left,12,0.019787599972914904
test,3,16,nogo,right,NA,1,weak,NA,NA,279.6,0.2,279.85,0.2,280.05,0.03333333333333333,280.0833333333333,0.016666666666666666,280.1,1.3,left,12,0.24182480000308715
test,3,17,Rest,Rest,Rest,Rest,Rest,Rest,Rest,281.4,1.8,Rest,Rest,Rest,Rest,Rest,Rest,Rest,Rest,Rest,Rest,1.8
test,3,18,go,left,NA,0,weak,NA,NA,283.2,0.2,283.45,0.2,283.65,0.03333333333333333,283.68333333333334,0.016666666666666666,283.7,1.3,left,12,0.25406149998889305
test,3,19,nogo,right,NA,1,weak,NA,NA,285.0,0.2,285.25,0.2,285.45,0.03333333333333333,285.48333333333335,0.016666666666666666,285.5,1.3,left,12,0.2480286999780219
test,3,20,go,left,NA,0,weak,NA,NA,286.8,0.2,287.05,0.2,287.25,0.03333333333333333,287.28333333333336,0.016666666666666666,287.3,1.3,left,12,0.2504698999982793
test,3,21,go,left,NA,0,strong,NA,NA,288.6,0.2,288.85,0.016666666666666666,288.8666666666667,0.03333333333333333,288.9,0.2,289.1,1.3,left,12,0.020565399987390265
test,3,22,go,left,NA,0,weak,NA,NA,290.4,0.2,290.65,0.2,290.85,0.03333333333333333,290.8833333333333,0.016666666666666666,290.9,1.3,left,12,0.2542459999967832
test,3,23,go,left,NA,0,weak,NA,NA,292.2,0.2,292.45,0.2,292.65,0.03333333333333333,292.68333333333334,0.016666666666666666,292.7,1.3,left,12,0.25399739999556914
test,3,24,Rest,Rest,Rest,Rest,Rest,Rest,Rest,294.0,3.6,Rest,Rest,Rest,Rest,Rest,Rest,Rest,Rest,Rest,Rest,3.6
test,3,25,go,left,NA,0,weak,NA,NA,297.6,0.2,297.85,0.2,298.05,0.03333333333333333,298.0833333333333,0.016666666666666666,298.1,1.3,left,12,0.2467880000185687
test,3,26,go,left,NA,0,weak,NA,NA,299.4,0.2,299.65,0.2,299.85,0.03333333333333333,299.8833333333333,0.016666666666666666,299.9,1.3,left,12,0.2429147999791894
test,3,27,Rest,Rest,Rest,Rest,Rest,Rest,Rest,301.2,1.8,Rest,Rest,Rest,Rest,Rest,Rest,Rest,Rest,Rest,Rest,1.8
test,3,28,nogo,right,NA,1,weak,NA,NA,303.0,0.2,303.25,0.2,303.45,0.03333333333333333,303.48333333333335,0.016666666666666666,303.5,1.3,left,12,0.2505294000147842
test,3,29,nogo,right,NA,1,strong,NA,NA,304.8,0.2,305.05,0.016666666666666666,305.06666666666666,0.03333333333333333,305.1,0.2,305.3,1.3,left,12,0.021689799992600456
test,3,30,catch,NA,NA,0,catch,NA,NA,306.6,0.2,306.85,0.0,306.85,0.0,306.85,0.25,307.1,1.3,left,12,6.550000398419797e-05
test,3,31,go,left,NA,0,weak,NA,NA,308.4,0.2,308.65,0.2,308.85,0.03333333333333333,308.8833333333333,0.016666666666666666,308.9,1.3,left,12,0.24674319999758154
test,3,32,Rest,Rest,Rest,Rest,Rest,Rest,Rest,310.2,1.8,Rest,Rest,Rest,Rest,Rest,Rest,Rest,Rest,Rest,Rest,1.8
test,3,33,go,left,NA,0,strong,NA,NA,312.0,0.2,312.25,0.016666666666666666,312.26666666666665,0.03333333333333333,312.3,0.2,312.5,1.3,left,12,0.02097790001425892
test,3,34,nogo,right,NA,1,weak,NA,NA,313.8,0.2,314.05,0.2,314.25,0.03333333333333333,314.28333333333336,0.016666666666666666,314.3,1.3,left,12,0.254037899983814
test,3,35,nogo,right,NA,1,weak,NA,NA,315.6,0.2,315.85,0.2,316.05,0.03333333333333333,316.0833333333333,0.016666666666666666,316.1,1.3,left,12,0.24488700000802055
test,3,36,go,left,NA,0,strong,NA,NA,317.4,0.2,317.65,0.016666666666666666,317.6666666666667,0.03333333333333333,317.7,0.2,317.9,1.3,left,12,0.021905000001424924
test,3,37,go,left,NA,0,strong,NA,NA,319.2,0.2,319.45,0.016666666666666666,319.46666666666664,0.03333333333333333,319.5,0.2,319.7,1.3,left,12,0.023252600018167868
test,3,38,nogo,right,NA,1,strong,NA,NA,321.0,0.2,321.25,0.016666666666666666,321.26666666666665,0.03333333333333333,321.3,0.2,321.5,1.3,left,12,0.019722600001841784
test,3,39,nogo,right,NA,1,strong,NA,NA,322.8,0.2,323.05,0.016666666666666666,323.06666666666666,0.03333333333333333,323.1,0.2,323.3,1.3,left,12,0.020549000008031726
test,3,40,Rest,Rest,Rest,Rest,Rest,Rest,Rest,324.6,1.8,Rest,Rest,Rest,Rest,Rest,Rest,Rest,Rest,Rest,Rest,1.8
test,3,41,nogo,right,NA,1,weak,NA,NA,326.4,0.2,326.65,0.2,326.85,0.03333333333333333,326.8833333333333,0.016666666666666666,326.9,1.3,left,12,0.25251200000639074
test,3,42,Rest,Rest,Rest,Rest,Rest,Rest,Rest,328.2,1.8,Rest,Rest,Rest,Rest,Rest,Rest,Rest,Rest,Rest,Rest,1.8
test,3,43,go,left,NA,0,strong,NA,NA,330.0,0.2,330.25,0.016666666666666666,330.26666666666665,0.03333333333333333,330.3,0.2,330.5,1.3,left,12,0.01990559999831021
test,3,44,nogo,right,NA,1,strong,NA,NA,331.8,0.2,332.05,0.016666666666666666,332.06666666666666,0.03333333333333333,332.1,0.2,332.3,1.3,left,12,0.020874999987427145
