subid,session,run,trial,trial_type,side,response,correct,strength,response_time,cumulative_response_time,fixation_onset,fixation_dur,stim_onset,stim_dur,blank_onset,blank_dur,mask_onset,mask_dur,response_onset,response_dur,go_side,Staircase_stimulus,Presentation Duration
trest,1,4,1,catch,NA,NA,0,catch,NA,NA,0.0,0.2,0.25,0.0,0.25,0.0,0.25,0.25,0.5,1.5666666666666667,left,12,2.4800014216452837e-05
trest,1,4,2,nogo,right,left,0,weak,1.535,3.891,2.066666666666667,0.2,2.316666666666667,0.2,2.5166666666666666,0.03333333333333333,2.55,0.016666666666666666,2.566666666666667,1.5333333333333334,left,12,0.20306260001962073
trest,1,4,3,go,left,left,1,weak,1.598,5.974,4.1,0.2,4.35,0.2,4.55,0.03333333333333333,4.583333333333333,0.016666666666666666,4.6,1.6,left,12,0.2002558000094723
trest,1,4,4,nogo,right,left,0,strong,1.633,7.907,6.2,0.2,6.45,0.016666666666666666,6.466666666666667,0.03333333333333333,6.5,0.2,6.7,1.6333333333333333,left,12,0.014117200014879927
trest,1,4,5,go,left,left,1,strong,1.569,9.776,8.333333333333334,0.2,8.583333333333334,0.016666666666666666,8.6,0.03333333333333333,8.633333333333333,0.2,8.833333333333334,1.5666666666666667,left,12,0.017403999983798712
trest,1,4,6,nogo,right,left,0,strong,1.571,11.642,10.4,0.2,10.65,0.016666666666666666,10.666666666666666,0.03333333333333333,10.7,0.2,10.9,1.5666666666666667,left,12,0.016912300023250282
trest,1,4,7,Rest,Rest,Rest,Rest,Rest,Rest,Rest,12.466666666666667,2.0,Rest,Rest,Rest,Rest,Rest,Rest,Rest,Rest,Rest,Rest,2.0
trest,1,4,8,go,left,left,1,strong,1.6,15.538,14.466666666666667,0.2,14.716666666666667,0.016666666666666666,14.733333333333333,0.03333333333333333,14.766666666666667,0.2,14.966666666666667,1.6,left,12,0.016215399984503165
trest,1,4,9,nogo,right,left,0,weak,1.597,17.618,16.566666666666666,0.2,16.816666666666666,0.2,17.016666666666666,0.03333333333333333,17.05,0.016666666666666666,17.066666666666666,1.6,left,12,0.19951760000549257
trest,1,4,10,Rest,Rest,Rest,Rest,Rest,Rest,Rest,18.666666666666668,2.0,Rest,Rest,Rest,Rest,Rest,Rest,Rest,Rest,Rest,Rest,2.0
trest,1,4,11,nogo,right,right,1,strong,1.549,21.466,20.666666666666668,0.2,20.916666666666668,0.016666666666666666,20.933333333333334,0.03333333333333333,20.966666666666665,0.2,21.166666666666668,1.5333333333333334,left,12,0.016917400003876537
trest,1,4,12,go,left,NA,0,weak,NA,NA,22.7,0.2,22.95,0.2,23.15,0.03333333333333333,23.183333333333334,0.016666666666666666,23.2,1.6,left,12,0.198894700006349
trest,1,4,13,go,left,NA,0,strong,NA,NA,24.8,0.2,25.05,0.016666666666666666,25.066666666666666,0.03333333333333333,25.1,0.2,25.3,1.6666666666666667,left,12,0.016513199982000515
trest,1,4,14,nogo,right,NA,1,weak,NA,NA,26.966666666666665,0.2,27.216666666666665,0.2,27.416666666666668,0.03333333333333333,27.45,0.016666666666666666,27.466666666666665,1.6,left,12,0.20469589999993332
trest,1,4,15,go,left,NA,0,weak,NA,NA,29.066666666666666,0.2,29.316666666666666,0.2,29.516666666666666,0.03333333333333333,29.55,0.016666666666666666,29.566666666666666,1.6,left,12,0.19892630001413636
trest,1,4,16,nogo,right,NA,1,weak,NA,NA,31.166666666666668,0.2,31.416666666666668,0.2,31.616666666666667,0.03333333333333333,31.65,0.016666666666666666,31.666666666666668,1.6666666666666667,left,12,0.20123940001940355
trest,1,4,17,go,left,NA,0,weak,NA,NA,33.333333333333336,0.2,33.583333333333336,0.2,33.78333333333333,0.03333333333333333,33.81666666666667,0.016666666666666666,33.833333333333336,1.6,left,12,0.1949558999913279
trest,1,4,18,go,left,NA,0,strong,NA,NA,35.43333333333333,0.2,35.68333333333333,0.016666666666666666,35.7,0.03333333333333333,35.733333333333334,0.2,35.93333333333333,1.6333333333333333,left,12,0.016565099998842925
trest,1,4,19,Rest,Rest,Rest,Rest,Rest,Rest,Rest,37.56666666666667,2.0,Rest,Rest,Rest,Rest,Rest,Rest,Rest,Rest,Rest,Rest,2.0
trest,1,4,20,nogo,right,NA,1,weak,NA,NA,39.56666666666667,0.2,39.81666666666667,0.2,40.016666666666666,0.03333333333333333,40.05,0.016666666666666666,40.06666666666667,1.5333333333333334,left,12,0.21616630000062287
trest,1,4,21,nogo,right,NA,1,weak,NA,NA,41.6,0.2,41.85,0.2,42.05,0.03333333333333333,42.083333333333336,0.016666666666666666,42.1,1.5666666666666667,left,12,0.20000810001511127
trest,1,4,22,go,left,NA,0,weak,NA,NA,43.666666666666664,0.2,43.916666666666664,0.2,44.11666666666667,0.03333333333333333,44.15,0.016666666666666666,44.166666666666664,1.6,left,12,0.19798640001681633
trest,1,4,23,Rest,Rest,Rest,Rest,Rest,Rest,Rest,45.766666666666666,2.0,Rest,Rest,Rest,Rest,Rest,Rest,Rest,Rest,Rest,Rest,2.0
trest,1,4,24,go,left,NA,0,weak,NA,NA,47.766666666666666,0.2,48.016666666666666,0.2,48.21666666666667,0.03333333333333333,48.25,0.016666666666666666,48.266666666666666,1.5333333333333334,left,12,0.2003275000024587
trest,1,4,25,Rest,Rest,Rest,Rest,Rest,Rest,Rest,49.8,2.0,Rest,Rest,Rest,Rest,Rest,Rest,Rest,Rest,Rest,Rest,2.0
trest,1,4,26,go,left,NA,0,strong,NA,NA,51.8,0.2,52.05,0.016666666666666666,52.06666666666667,0.03333333333333333,52.1,0.2,52.3,1.6333333333333333,left,12,0.015095500013558194
trest,1,4,27,nogo,right,NA,1,weak,NA,NA,53.93333333333333,0.2,54.18333333333333,0.2,54.38333333333333,0.03333333333333333,54.416666666666664,0.016666666666666666,54.43333333333333,1.6,left,12,0.19926130000385456
trest,1,4,28,go,left,NA,0,weak,NA,NA,56.03333333333333,0.2,56.28333333333333,0.2,56.483333333333334,0.03333333333333333,56.516666666666666,0.016666666666666666,56.53333333333333,1.5,left,12,0.19969339997624047
trest,1,4,29,nogo,right,NA,1,weak,NA,NA,58.03333333333333,0.2,58.28333333333333,0.2,58.483333333333334,0.03333333333333333,58.516666666666666,0.016666666666666666,58.53333333333333,1.5,left,12,0.20176729999366216
trest,1,4,30,go,left,NA,0,strong,NA,NA,60.03333333333333,0.2,60.28333333333333,0.016666666666666666,60.3,0.03333333333333333,60.333333333333336,0.2,60.53333333333333,1.5333333333333334,left,12,0.015547399991191924
trest,1,4,31,go,left,NA,0,strong,NA,NA,62.06666666666667,0.2,62.31666666666667,0.016666666666666666,62.333333333333336,0.03333333333333333,62.36666666666667,0.2,62.56666666666667,1.6333333333333333,left,12,0.01826989999972284
trest,1,4,32,catch,NA,NA,0,catch,NA,NA,64.2,0.2,64.45,0.0,64.45,0.0,64.45,0.25,64.7,1.6333333333333333,left,12,7.449998520314693e-05
trest,1,4,33,Rest,Rest,Rest,Rest,Rest,Rest,Rest,66.33333333333333,2.0,Rest,Rest,Rest,Rest,Rest,Rest,Rest,Rest,Rest,Rest,2.0
trest,1,4,34,go,left,NA,0,weak,NA,NA,68.33333333333333,0.2,68.58333333333333,0.2,68.78333333333333,0.03333333333333333,68.81666666666666,0.016666666666666666,68.83333333333333,1.5666666666666667,left,12,0.20079659999464639
trest,1,4,35,go,left,NA,0,strong,NA,NA,70.4,0.2,70.65,0.016666666666666666,70.66666666666667,0.03333333333333333,70.7,0.2,70.9,1.5666666666666667,left,12,0.016440300008980557
trest,1,4,36,go,left,NA,0,strong,NA,NA,72.46666666666667,0.2,72.71666666666667,0.016666666666666666,72.73333333333333,0.03333333333333333,72.76666666666667,0.2,72.96666666666667,1.6333333333333333,left,12,0.013207899988628924
trest,1,4,37,catch,NA,NA,0,catch,NA,NA,74.6,0.2,74.85,0.0,74.85,0.0,74.85,0.25,75.1,1.5333333333333334,left,12,6.500000017695129e-05
trest,1,4,38,nogo,right,NA,1,strong,NA,NA,76.63333333333334,0.2,76.88333333333334,0.016666666666666666,76.9,0.03333333333333333,76.93333333333334,0.2,77.13333333333334,1.5333333333333334,left,12,0.01620600000023842
trest,1,4,39,catch,NA,NA,0,catch,NA,NA,78.66666666666667,0.2,78.91666666666667,0.0,78.91666666666667,0.0,78.91666666666667,0.25,79.16666666666667,1.5,left,12,2.4599983589723706e-05
trest,1,4,40,go,left,NA,0,strong,NA,NA,80.66666666666667,0.2,80.91666666666667,0.016666666666666666,80.93333333333334,0.03333333333333333,80.96666666666667,0.2,81.16666666666667,1.5333333333333334,left,12,0.017625800013775006
trest,1,4,41,catch,NA,NA,0,catch,NA,NA,82.7,0.2,82.95,0.0,82.95,0.0,82.95,0.25,83.2,1.6666666666666667,left,12,2.7600006433203816e-05
trest,1,4,42,catch,NA,NA,0,catch,NA,NA,90.06666666666666,0.2,90.31666666666666,0.0,90.31666666666666,0.0,90.31666666666666,0.25,90.56666666666666,1.5333333333333334,left,12,2.61999957729131e-05
trest,1,4,43,nogo,right,NA,1,strong,NA,NA,92.1,0.2,92.35,0.016666666666666666,92.36666666666666,0.03333333333333333,92.4,0.2,92.6,1.5333333333333334,left,12,0.013727599987760186
trest,1,4,44,nogo,right,NA,1,strong,NA,NA,94.13333333333334,0.2,94.38333333333334,0.016666666666666666,94.4,0.03333333333333333,94.43333333333334,0.2,94.63333333333334,1.5666666666666667,left,12,0.015967699990142137
trest,1,4,45,go,left,NA,0,weak,NA,NA,96.2,0.2,96.45,0.2,96.65,0.03333333333333333,96.68333333333334,0.016666666666666666,96.7,1.5,left,12,0.2012710999988485
trest,1,4,46,nogo,right,NA,1,weak,NA,NA,98.2,0.2,98.45,0.2,98.65,0.03333333333333333,98.68333333333334,0.016666666666666666,98.7,1.5666666666666667,left,12,0.1959696999983862
trest,1,4,47,go,left,NA,0,strong,NA,NA,100.26666666666667,0.2,100.51666666666667,0.016666666666666666,100.53333333333333,0.03333333333333333,100.56666666666666,0.2,100.76666666666667,1.6,left,12,0.017350400012219325
trest,1,4,48,go,left,NA,0,weak,NA,NA,102.36666666666666,0.2,102.61666666666666,0.2,102.81666666666666,0.03333333333333333,102.85,0.016666666666666666,102.86666666666666,1.5333333333333334,left,12,0.19609380001202226
trest,1,4,49,go,left,NA,0,strong,NA,NA,104.4,0.2,104.65,0.016666666666666666,104.66666666666667,0.03333333333333333,104.7,0.2,104.9,1.5333333333333334,left,12,0.015907499997410923
trest,1,4,50,go,left,NA,0,weak,NA,NA,106.43333333333334,0.2,106.68333333333334,0.2,106.88333333333334,0.03333333333333333,106.91666666666667,0.016666666666666666,106.93333333333334,1.6333333333333333,left,12,0.20365909999236465
trest,1,4,51,nogo,right,NA,1,strong,NA,NA,108.56666666666666,0.2,108.81666666666666,0.016666666666666666,108.83333333333333,0.03333333333333333,108.86666666666666,0.2,109.06666666666666,1.6666666666666667,left,12,0.01835410000057891
trest,1,4,52,Rest,Rest,Rest,Rest,Rest,Rest,Rest,110.73333333333333,2.0,Rest,Rest,Rest,Rest,Rest,Rest,Rest,Rest,Rest,Rest,2.0
trest,1,4,53,nogo,right,NA,1,weak,NA,NA,112.73333333333333,0.2,112.98333333333333,0.2,113.18333333333334,0.03333333333333333,113.21666666666667,0.016666666666666666,113.23333333333333,1.6666666666666667,left,12,0.2004313999786973
trest,1,4,54,Rest,Rest,Rest,Rest,Rest,Rest,Rest,114.9,2.0,Rest,Rest,Rest,Rest,Rest,Rest,Rest,Rest,Rest,Rest,2.0
trest,1,4,55,go,left,NA,0,strong,NA,NA,116.9,0.2,117.15,0.016666666666666666,117.16666666666667,0.03333333333333333,117.2,0.2,117.4,1.6666666666666667,left,12,0.014813399990089238
trest,1,4,56,go,left,NA,0,weak,NA,NA,119.06666666666666,0.2,119.31666666666666,0.2,119.51666666666667,0.03333333333333333,119.55,0.016666666666666666,119.56666666666666,1.5666666666666667,left,12,0.19958759998553433
trest,1,4,57,nogo,right,NA,1,weak,NA,NA,121.13333333333334,0.2,121.38333333333334,0.2,121.58333333333333,0.03333333333333333,121.61666666666666,0.016666666666666666,121.63333333333334,1.5,left,12,0.19487779997871257
trest,1,4,58,nogo,right,NA,1,strong,NA,NA,123.13333333333334,0.2,123.38333333333334,0.016666666666666666,123.4,0.03333333333333333,123.43333333333334,0.2,123.63333333333334,1.6333333333333333,left,12,0.016108700016047806
trest,1,4,59,go,left,NA,0,strong,NA,NA,125.26666666666667,0.2,125.51666666666667,0.016666666666666666,125.53333333333333,0.03333333333333333,125.56666666666666,0.2,125.76666666666667,1.5,left,12,0.017510500008938834
trest,1,4,60,nogo,right,NA,1,strong,NA,NA,127.26666666666667,0.2,127.51666666666667,0.016666666666666666,127.53333333333333,0.03333333333333333,127.56666666666666,0.2,127.76666666666667,1.6333333333333333,left,12,0.012774600007105619
trest,1,4,61,nogo,right,NA,1,strong,NA,NA,129.4,0.2,129.65,0.016666666666666666,129.66666666666666,0.03333333333333333,129.7,0.2,129.9,1.5333333333333334,left,12,0.01644600002327934
trest,1,4,62,Rest,Rest,Rest,Rest,Rest,Rest,Rest,131.43333333333334,2.0,Rest,Rest,Rest,Rest,Rest,Rest,Rest,Rest,Rest,Rest,2.0
trest,1,4,63,go,left,NA,0,weak,NA,NA,133.43333333333334,0.2,133.68333333333334,0.2,133.88333333333333,0.03333333333333333,133.91666666666666,0.016666666666666666,133.93333333333334,1.5,left,12,0.2036851999873761
trest,1,4,64,go,left,NA,0,strong,NA,NA,135.43333333333334,0.2,135.68333333333334,0.016666666666666666,135.7,0.03333333333333333,135.73333333333332,0.2,135.93333333333334,1.5333333333333334,left,12,0.0176045999978669
trest,1,4,65,Rest,Rest,Rest,Rest,Rest,Rest,Rest,137.46666666666667,2.0,Rest,Rest,Rest,Rest,Rest,Rest,Rest,Rest,Rest,Rest,2.0
trest,1,4,66,go,left,NA,0,weak,NA,NA,139.46666666666667,0.2,139.71666666666667,0.2,139.91666666666666,0.03333333333333333,139.95,0.016666666666666666,139.96666666666667,1.6666666666666667,left,12,0.20044200000120327
trest,1,4,67,go,left,NA,0,strong,NA,NA,141.63333333333333,0.2,141.88333333333333,0.016666666666666666,141.9,0.03333333333333333,141.93333333333334,0.2,142.13333333333333,1.6333333333333333,left,12,0.01765769999474287
trest,1,4,68,go,left,NA,0,strong,NA,NA,143.76666666666668,0.2,144.01666666666668,0.016666666666666666,144.03333333333333,0.03333333333333333,144.06666666666666,0.2,144.26666666666668,1.5,left,12,0.016788500011898577
trest,1,4,69,Rest,Rest,Rest,Rest,Rest,Rest,Rest,145.76666666666668,2.0,Rest,Rest,Rest,Rest,Rest,Rest,Rest,Rest,Rest,Rest,2.0
trest,1,4,70,nogo,right,NA,1,weak,NA,NA,147.76666666666668,0.2,148.01666666666668,0.2,148.21666666666667,0.03333333333333333,148.25,0.016666666666666666,148.26666666666668,1.5,left,12,0.19872360001318157
trest,1,4,71,go,left,NA,0,weak,NA,NA,149.76666666666668,0.2,150.01666666666668,0.2,150.21666666666667,0.03333333333333333,150.25,0.016666666666666666,150.26666666666668,1.5666666666666667,left,12,0.2007889999949839
trest,1,4,72,nogo,right,NA,1,strong,NA,NA,151.83333333333334,0.2,152.08333333333334,0.016666666666666666,152.1,0.03333333333333333,152.13333333333333,0.2,152.33333333333334,1.6333333333333333,left,12,0.016681000008247793
trest,1,4,73,go,left,NA,0,strong,NA,NA,153.96666666666667,0.2,154.21666666666667,0.016666666666666666,154.23333333333332,0.03333333333333333,154.26666666666668,0.2,154.46666666666667,1.6333333333333333,left,12,0.01675859998795204
trest,1,4,74,catch,NA,NA,0,catch,NA,NA,156.1,0.2,156.35,0.0,156.35,0.0,156.35,0.25,156.6,1.5,left,12,4.439998883754015e-05
trest,1,4,75,go,left,NA,0,weak,NA,NA,158.1,0.2,158.35,0.2,158.55,0.03333333333333333,158.58333333333334,0.016666666666666666,158.6,1.6,left,12,0.20012740002130158
trest,1,4,76,go,left,NA,0,strong,NA,NA,160.2,0.2,160.45,0.016666666666666666,160.46666666666667,0.03333333333333333,160.5,0.2,160.7,1.5333333333333334,left,12,0.012809100007871166
trest,1,4,77,nogo,right,NA,1,strong,NA,NA,162.23333333333332,0.2,162.48333333333332,0.016666666666666666,162.5,0.03333333333333333,162.53333333333333,0.2,162.73333333333332,1.6666666666666667,left,12,0.016772400005720556
trest,1,4,78,nogo,right,NA,1,weak,NA,NA,164.4,0.2,164.65,0.2,164.85,0.03333333333333333,164.88333333333333,0.016666666666666666,164.9,1.6333333333333333,left,12,0.1964248000003863
trest,1,4,79,go,left,NA,0,strong,NA,NA,166.53333333333333,0.2,166.78333333333333,0.016666666666666666,166.8,0.03333333333333333,166.83333333333334,0.2,167.03333333333333,1.5666666666666667,left,12,0.0168783999979496
trest,1,4,80,Rest,Rest,Rest,Rest,Rest,Rest,Rest,168.6,2.0,Rest,Rest,Rest,Rest,Rest,Rest,Rest,Rest,Rest,Rest,2.0
trest,1,4,81,nogo,right,NA,1,weak,NA,NA,170.6,0.2,170.85,0.2,171.05,0.03333333333333333,171.08333333333334,0.016666666666666666,171.1,1.5666666666666667,left,12,0.19757210000534542
trest,1,4,82,go,left,NA,0,weak,NA,NA,172.66666666666666,0.2,172.91666666666666,0.2,173.11666666666667,0.03333333333333333,173.15,0.016666666666666666,173.16666666666666,1.6,left,12,0.20033970000804402
trest,1,4,83,Rest,Rest,Rest,Rest,Rest,Rest,Rest,174.76666666666668,2.0,Rest,Rest,Rest,Rest,Rest,Rest,Rest,Rest,Rest,Rest,2.0
trest,1,4,84,nogo,right,NA,1,weak,NA,NA,176.76666666666668,0.2,177.01666666666668,0.2,177.21666666666667,0.03333333333333333,177.25,0.016666666666666666,177.26666666666668,1.6333333333333333,left,12,0.19937170000048354
trest,1,4,85,Rest,Rest,Rest,Rest,Rest,Rest,Rest,178.9,2.0,Rest,Rest,Rest,Rest,Rest,Rest,Rest,Rest,Rest,Rest,2.0
trest,1,4,86,nogo,right,NA,1,weak,NA,NA,186.56666666666666,0.2,186.81666666666666,0.2,187.01666666666668,0.03333333333333333,187.05,0.016666666666666666,187.06666666666666,1.6666666666666667,left,12,0.1996985000150744
trest,1,4,87,go,left,NA,0,strong,NA,NA,188.73333333333332,0.2,188.98333333333332,0.016666666666666666,189.0,0.03333333333333333,189.03333333333333,0.2,189.23333333333332,1.5,left,12,0.015287999995052814
trest,1,4,88,catch,NA,NA,0,catch,NA,NA,190.73333333333332,0.2,190.98333333333332,0.0,190.98333333333332,0.0,190.98333333333332,0.25,191.23333333333332,1.6,left,12,8.299999171867967e-05
trest,1,4,89,go,left,NA,0,weak,NA,NA,192.83333333333334,0.2,193.08333333333334,0.2,193.28333333333333,0.03333333333333333,193.31666666666666,0.016666666666666666,193.33333333333334,1.5666666666666667,left,12,0.19899149998673238
trest,1,4,90,nogo,right,NA,1,strong,NA,NA,194.9,0.2,195.15,0.016666666666666666,195.16666666666666,0.03333333333333333,195.2,0.2,195.4,1.5,left,12,0.01685049998923205
trest,1,4,91,go,left,NA,0,weak,NA,NA,196.9,0.2,197.15,0.2,197.35,0.03333333333333333,197.38333333333333,0.016666666666666666,197.4,1.6666666666666667,left,12,0.21391389999189414
trest,1,4,92,go,left,NA,0,strong,NA,NA,199.06666666666666,0.2,199.31666666666666,0.016666666666666666,199.33333333333334,0.03333333333333333,199.36666666666667,0.2,199.56666666666666,1.5,left,12,0.019430200016358867
trest,1,4,93,Rest,Rest,Rest,Rest,Rest,Rest,Rest,201.06666666666666,4.0,Rest,Rest,Rest,Rest,Rest,Rest,Rest,Rest,Rest,Rest,4.0
trest,1,4,94,go,left,NA,0,weak,NA,NA,205.06666666666666,0.2,205.31666666666666,0.2,205.51666666666668,0.03333333333333333,205.55,0.016666666666666666,205.56666666666666,1.6333333333333333,left,12,0.19969539999146946
trest,1,4,95,nogo,right,NA,1,weak,NA,NA,207.2,0.2,207.45,0.2,207.65,0.03333333333333333,207.68333333333334,0.016666666666666666,207.7,1.6666666666666667,left,12,0.19995159999234602
trest,1,4,96,nogo,right,NA,1,strong,NA,NA,209.36666666666667,0.2,209.61666666666667,0.016666666666666666,209.63333333333333,0.03333333333333333,209.66666666666666,0.2,209.86666666666667,1.5,left,12,0.016800899989902973
trest,1,4,97,go,left,NA,0,strong,NA,NA,211.36666666666667,0.2,211.61666666666667,0.016666666666666666,211.63333333333333,0.03333333333333333,211.66666666666666,0.2,211.86666666666667,1.6,left,12,0.016599599999608472
trest,1,4,98,nogo,right,NA,1,strong,NA,NA,213.46666666666667,0.2,213.71666666666667,0.016666666666666666,213.73333333333332,0.03333333333333333,213.76666666666668,0.2,213.96666666666667,1.5,left,12,0.017556099977809936
trest,1,4,99,go,left,NA,0,strong,NA,NA,215.46666666666667,0.2,215.71666666666667,0.016666666666666666,215.73333333333332,0.03333333333333333,215.76666666666668,0.2,215.96666666666667,1.6333333333333333,left,12,0.01809940001112409
trest,1,4,100,go,left,NA,0,weak,NA,NA,217.6,0.2,217.85,0.2,218.05,0.03333333333333333,218.08333333333334,0.016666666666666666,218.1,1.6333333333333333,left,12,0.19970110000576824
trest,1,4,101,go,left,NA,0,weak,NA,NA,219.73333333333332,0.2,219.98333333333332,0.2,220.18333333333334,0.03333333333333333,220.21666666666667,0.016666666666666666,220.23333333333332,1.6,left,12,0.19978589998208918
trest,1,4,102,nogo,right,NA,1,strong,NA,NA,221.83333333333334,0.2,222.08333333333334,0.016666666666666666,222.1,0.03333333333333333,222.13333333333333,0.2,222.33333333333334,1.6666666666666667,left,12,0.016900999995414168
trest,1,4,103,Rest,Rest,Rest,Rest,Rest,Rest,Rest,224.0,2.0,Rest,Rest,Rest,Rest,Rest,Rest,Rest,Rest,Rest,Rest,2.0
trest,1,4,104,nogo,right,NA,1,strong,NA,NA,226.0,0.2,226.25,0.016666666666666666,226.26666666666668,0.03333333333333333,226.3,0.2,226.5,1.6666666666666667,left,12,0.01647969998884946
trest,1,4,105,nogo,right,NA,1,strong,NA,NA,228.16666666666666,0.2,228.41666666666666,0.016666666666666666,228.43333333333334,0.03333333333333333,228.46666666666667,0.2,228.66666666666666,1.5666666666666667,left,12,0.016643800016026944
trest,1,4,106,nogo,right,NA,1,strong,NA,NA,230.23333333333332,0.2,230.48333333333332,0.016666666666666666,230.5,0.03333333333333333,230.53333333333333,0.2,230.73333333333332,1.6666666666666667,left,12,0.016538600000785664
trest,1,4,107,Rest,Rest,Rest,Rest,Rest,Rest,Rest,232.4,2.0,Rest,Rest,Rest,Rest,Rest,Rest,Rest,Rest,Rest,Rest,2.0
trest,1,4,108,nogo,right,NA,1,weak,NA,NA,234.4,0.2,234.65,0.2,234.85,0.03333333333333333,234.88333333333333,0.016666666666666666,234.9,1.6,left,12,0.20108119997894391
trest,1,4,109,nogo,right,NA,1,weak,NA,NA,236.5,0.2,236.75,0.2,236.95,0.03333333333333333,236.98333333333332,0.016666666666666666,237.0,1.5666666666666667,left,12,0.19928440000512637
trest,1,4,110,nogo,right,NA,1,weak,NA,NA,238.56666666666666,0.2,238.81666666666666,0.2,239.01666666666668,0.03333333333333333,239.05,0.016666666666666666,239.06666666666666,1.6333333333333333,left,12,0.20007160000386648
trest,1,4,111,catch,NA,NA,0,catch,NA,NA,240.7,0.2,240.95,0.0,240.95,0.0,240.95,0.25,241.2,1.5,left,12,4.370001261122525e-05
trest,1,4,112,nogo,right,NA,1,weak,NA,NA,242.7,0.2,242.95,0.2,243.15,0.03333333333333333,243.18333333333334,0.016666666666666666,243.2,1.5666666666666667,left,12,0.20095840000431053
trest,1,4,113,go,left,NA,0,strong,NA,NA,244.76666666666668,0.2,245.01666666666668,0.016666666666666666,245.03333333333333,0.03333333333333333,245.06666666666666,0.2,245.26666666666668,1.6,left,12,0.013665899983607233
trest,1,4,114,nogo,right,NA,1,weak,NA,NA,246.86666666666667,0.2,247.11666666666667,0.2,247.31666666666666,0.03333333333333333,247.35,0.016666666666666666,247.36666666666667,1.5333333333333334,left,12,0.20396620000246912
trest,1,4,115,nogo,right,NA,1,weak,NA,NA,248.9,0.2,249.15,0.2,249.35,0.03333333333333333,249.38333333333333,0.016666666666666666,249.4,1.5666666666666667,left,12,0.20094609999796376
trest,1,4,116,go,left,NA,0,strong,NA,NA,250.96666666666667,0.2,251.21666666666667,0.016666666666666666,251.23333333333332,0.03333333333333333,251.26666666666668,0.2,251.46666666666667,1.6,left,12,0.016380899993237108
trest,1,4,117,go,left,NA,0,strong,NA,NA,253.06666666666666,0.2,253.31666666666666,0.016666666666666666,253.33333333333334,0.03333333333333333,253.36666666666667,0.2,253.56666666666666,1.6666666666666667,left,12,0.016610899998340756
trest,1,4,118,nogo,right,NA,1,weak,NA,NA,255.23333333333332,0.2,255.48333333333332,0.2,255.68333333333334,0.03333333333333333,255.71666666666667,0.016666666666666666,255.73333333333332,1.5666666666666667,left,12,0.20089949999237433
trest,1,4,119,nogo,right,NA,1,strong,NA,NA,257.3,0.2,257.55,0.016666666666666666,257.56666666666666,0.03333333333333333,257.6,0.2,257.8,1.5,left,12,0.01802529999986291
trest,1,4,120,Rest,Rest,Rest,Rest,Rest,Rest,Rest,259.3,2.0,Rest,Rest,Rest,Rest,Rest,Rest,Rest,Rest,Rest,Rest,2.0
trest,1,4,121,nogo,right,NA,1,strong,NA,NA,261.3,0.2,261.55,0.016666666666666666,261.56666666666666,0.03333333333333333,261.6,0.2,261.8,1.6666666666666667,left,12,0.014988500013714656
trest,1,4,122,Rest,Rest,Rest,Rest,Rest,Rest,Rest,263.46666666666664,2.0,Rest,Rest,Rest,Rest,Rest,Rest,Rest,Rest,Rest,Rest,2.0
trest,1,4,123,go,left,NA,0,weak,NA,NA,265.46666666666664,0.2,265.71666666666664,0.2,265.9166666666667,0.03333333333333333,265.95,0.016666666666666666,265.96666666666664,1.5333333333333334,left,12,0.19838790001813322
trest,1,4,124,go,left,NA,0,strong,NA,NA,267.5,0.2,267.75,0.016666666666666666,267.76666666666665,0.03333333333333333,267.8,0.2,268.0,1.6333333333333333,left,12,0.01692120000370778
trest,1,4,125,go,left,NA,0,weak,NA,NA,269.6333333333333,0.2,269.8833333333333,0.2,270.0833333333333,0.03333333333333333,270.1166666666667,0.016666666666666666,270.1333333333333,1.6,left,12,0.19266299999435432
trest,1,4,126,go,left,NA,0,weak,NA,NA,271.73333333333335,0.2,271.98333333333335,0.2,272.18333333333334,0.03333333333333333,272.21666666666664,0.016666666666666666,272.23333333333335,1.6333333333333333,left,12,0.19998529998701997
trest,1,4,127,nogo,right,NA,1,strong,NA,NA,278.1666666666667,0.2,278.4166666666667,0.016666666666666666,278.43333333333334,0.03333333333333333,278.46666666666664,0.2,278.6666666666667,1.5,left,12,0.017033399984939024
trest,1,4,128,Rest,Rest,Rest,Rest,Rest,Rest,Rest,280.1666666666667,2.0,Rest,Rest,Rest,Rest,Rest,Rest,Rest,Rest,Rest,Rest,2.0
trest,1,4,129,catch,NA,NA,0,catch,NA,NA,282.1666666666667,0.2,282.4166666666667,0.0,282.4166666666667,0.0,282.4166666666667,0.25,282.6666666666667,1.5,left,12,4.509999416768551e-05
trest,1,4,130,Rest,Rest,Rest,Rest,Rest,Rest,Rest,284.1666666666667,2.0,Rest,Rest,Rest,Rest,Rest,Rest,Rest,Rest,Rest,Rest,2.0
trest,1,4,131,go,left,NA,0,weak,NA,NA,286.1666666666667,0.2,286.4166666666667,0.2,286.6166666666667,0.03333333333333333,286.65,0.016666666666666666,286.6666666666667,1.6,left,12,0.20093660001293756
trest,1,4,132,go,left,NA,0,strong,NA,NA,288.26666666666665,0.2,288.51666666666665,0.016666666666666666,288.53333333333336,0.03333333333333333,288.56666666666666,0.2,288.76666666666665,1.5666666666666667,left,12,0.01774509999086149
trest,1,4,133,go,left,NA,0,strong,NA,NA,290.3333333333333,0.2,290.5833333333333,0.016666666666666666,290.6,0.03333333333333333,290.6333333333333,0.2,290.8333333333333,1.5666666666666667,left,12,0.015907199995126575
trest,1,4,134,catch,NA,NA,0,catch,NA,NA,292.4,0.2,292.65,0.0,292.65,0.0,292.65,0.25,292.9,1.5,left,12,1.7600017599761486e-05
trest,1,4,135,catch,NA,NA,0,catch,NA,NA,294.4,0.2,294.65,0.0,294.65,0.0,294.65,0.25,294.9,1.6666666666666667,left,12,1.1600001016631722e-05
trest,1,4,136,nogo,right,NA,1,weak,NA,NA,296.56666666666666,0.2,296.81666666666666,0.2,297.01666666666665,0.03333333333333333,297.05,0.016666666666666666,297.06666666666666,1.5333333333333334,left,12,0.20502850000048056
trest,1,4,137,Rest,Rest,Rest,Rest,Rest,Rest,Rest,298.6,8.0,Rest,Rest,Rest,Rest,Rest,Rest,Rest,Rest,Rest,Rest,8.0
trest,1,4,138,nogo,right,NA,1,strong,NA,NA,306.6,0.2,306.85,0.016666666666666666,306.8666666666667,0.03333333333333333,306.9,0.2,307.1,1.5,left,12,0.017579699982888997
trest,1,4,139,Rest,Rest,Rest,Rest,Rest,Rest,Rest,308.6,2.0,Rest,Rest,Rest,Rest,Rest,Rest,Rest,Rest,Rest,Rest,2.0
trest,1,4,140,go,left,NA,0,weak,NA,NA,310.6,0.2,310.85,0.2,311.05,0.03333333333333333,311.0833333333333,0.016666666666666666,311.1,1.5,left,12,0.205647000024328
trest,1,4,141,Rest,Rest,Rest,Rest,Rest,Rest,Rest,312.6,2.0,Rest,Rest,Rest,Rest,Rest,Rest,Rest,Rest,Rest,Rest,2.0
trest,1,4,142,go,left,NA,0,weak,NA,NA,314.6,0.2,314.85,0.2,315.05,0.03333333333333333,315.0833333333333,0.016666666666666666,315.1,1.6666666666666667,left,12,0.20386690000304952
trest,1,4,143,go,left,NA,0,weak,NA,NA,316.76666666666665,0.2,317.01666666666665,0.2,317.21666666666664,0.03333333333333333,317.25,0.016666666666666666,317.26666666666665,1.6666666666666667,left,12,0.1934505000244826
trest,1,4,144,Rest,Rest,Rest,Rest,Rest,Rest,Rest,318.93333333333334,2.0,Rest,Rest,Rest,Rest,Rest,Rest,Rest,Rest,Rest,Rest,2.0
trest,1,4,145,nogo,right,NA,1,weak,NA,NA,320.93333333333334,0.2,321.18333333333334,0.2,321.3833333333333,0.03333333333333333,321.4166666666667,0.016666666666666666,321.43333333333334,1.6666666666666667,left,12,0.20239930000388995
trest,1,4,146,catch,NA,NA,0,catch,NA,NA,323.1,0.2,323.35,0.0,323.35,0.0,323.35,0.25,323.6,1.5333333333333334,left,12,5.299999611452222e-05
trest,1,4,147,go,left,NA,0,weak,NA,NA,325.1333333333333,0.2,325.3833333333333,0.2,325.5833333333333,0.03333333333333333,325.6166666666667,0.016666666666666666,325.6333333333333,1.6,left,12,0.21157620000303723
trest,1,4,148,Rest,Rest,Rest,Rest,Rest,Rest,Rest,327.23333333333335,2.0,Rest,Rest,Rest,Rest,Rest,Rest,Rest,Rest,Rest,Rest,2.0
trest,1,4,149,nogo,right,NA,1,strong,NA,NA,329.23333333333335,0.2,329.48333333333335,0.016666666666666666,329.5,0.03333333333333333,329.53333333333336,0.2,329.73333333333335,1.6666666666666667,left,12,0.01422640000237152
trest,1,4,150,nogo,right,NA,1,weak,NA,NA,331.4,0.2,331.65,0.2,331.85,0.03333333333333333,331.8833333333333,0.016666666666666666,331.9,1.5666666666666667,left,12,0.19855949998600408
trest,1,4,151,Rest,Rest,Rest,Rest,Rest,Rest,Rest,333.46666666666664,2.0,Rest,Rest,Rest,Rest,Rest,Rest,Rest,Rest,Rest,Rest,2.0
trest,1,4,152,go,left,NA,0,strong,NA,NA,335.46666666666664,0.2,335.71666666666664,0.016666666666666666,335.73333333333335,0.03333333333333333,335.76666666666665,0.2,335.96666666666664,1.5333333333333334,left,12,0.017508799995994195
trest,1,4,153,Rest,Rest,Rest,Rest,Rest,Rest,Rest,337.5,2.0,Rest,Rest,Rest,Rest,Rest,Rest,Rest,Rest,Rest,Rest,2.0
trest,1,4,154,nogo,right,NA,1,strong,NA,NA,339.5,0.2,339.75,0.016666666666666666,339.76666666666665,0.03333333333333333,339.8,0.2,340.0,1.6,left,12,0.015964999998686835
trest,1,4,155,nogo,right,NA,1,strong,NA,NA,341.6,0.2,341.85,0.016666666666666666,341.8666666666667,0.03333333333333333,341.9,0.2,342.1,1.6333333333333333,left,12,0.016993700002785772
trest,1,4,156,nogo,right,NA,1,weak,NA,NA,343.73333333333335,0.2,343.98333333333335,0.2,344.18333333333334,0.03333333333333333,344.21666666666664,0.016666666666666666,344.23333333333335,1.6666666666666667,left,12,0.2005170999909751
trest,1,4,157,nogo,right,NA,1,strong,NA,NA,345.9,0.2,346.15,0.016666666666666666,346.1666666666667,0.03333333333333333,346.2,0.2,346.4,1.5,left,12,0.01688890001969412
trest,1,4,158,Rest,Rest,Rest,Rest,Rest,Rest,Rest,347.9,2.0,Rest,Rest,Rest,Rest,Rest,Rest,Rest,Rest,Rest,Rest,2.0
trest,1,4,159,nogo,right,NA,1,weak,NA,NA,349.9,0.2,350.15,0.2,350.35,0.03333333333333333,350.3833333333333,0.016666666666666666,350.4,1.5,left,12,0.19942250000895
trest,1,4,160,nogo,right,NA,1,strong,NA,NA,351.9,0.2,352.15,0.016666666666666666,352.1666666666667,0.03333333333333333,352.2,0.2,352.4,1.6666666666666667,left,12,0.01629329999559559
trest,1,4,161,nogo,right,NA,1,weak,NA,NA,354.06666666666666,0.2,354.31666666666666,0.2,354.51666666666665,0.03333333333333333,354.55,0.016666666666666666,354.56666666666666,1.5666666666666667,left,12,0.19845429999986663
trest,1,4,162,nogo,right,NA,1,weak,NA,NA,356.1333333333333,0.2,356.3833333333333,0.2,356.5833333333333,0.03333333333333333,356.6166666666667,0.016666666666666666,356.6333333333333,1.5333333333333334,left,12,0.20137309998972341
trest,1,4,163,go,left,NA,0,weak,NA,NA,358.1666666666667,0.2,358.4166666666667,0.2,358.6166666666667,0.03333333333333333,358.65,0.016666666666666666,358.6666666666667,1.6333333333333333,left,12,0.20192729998962022
trest,1,4,164,go,left,NA,0,weak,NA,NA,360.3,0.2,360.55,0.2,360.75,0.03333333333333333,360.78333333333336,0.016666666666666666,360.8,1.6,left,12,0.19308749999618158
trest,1,4,165,catch,NA,NA,0,catch,NA,NA,362.4,0.2,362.65,0.0,362.65,0.0,362.65,0.25,362.9,1.5333333333333334,left,12,4.140002420172095e-05
trest,1,4,166,go,left,NA,0,strong,NA,NA,364.43333333333334,0.2,364.68333333333334,0.016666666666666666,364.7,0.03333333333333333,364.73333333333335,0.2,364.93333333333334,1.6333333333333333,left,12,0.016581500007305294
trest,1,4,167,nogo,right,NA,1,strong,NA,NA,366.56666666666666,0.2,366.81666666666666,0.016666666666666666,366.8333333333333,0.03333333333333333,366.8666666666667,0.2,367.06666666666666,1.6666666666666667,left,12,0.014721799991093576
trest,1,4,168,nogo,right,NA,1,weak,NA,NA,368.73333333333335,0.2,368.98333333333335,0.2,369.18333333333334,0.03333333333333333,369.21666666666664,0.016666666666666666,369.23333333333335,1.5333333333333334,left,12,0.2015798999927938
trest,1,4,169,nogo,right,NA,1,strong,NA,NA,370.76666666666665,0.2,371.01666666666665,0.016666666666666666,371.03333333333336,0.03333333333333333,371.06666666666666,0.2,371.26666666666665,1.6,left,12,0.015919099998427555
trest,1,4,170,nogo,right,NA,1,strong,NA,NA,372.8666666666667,0.2,373.1166666666667,0.016666666666666666,373.1333333333333,0.03333333333333333,373.1666666666667,0.2,373.3666666666667,1.6333333333333333,left,12,0.021593899989966303
trest,1,4,171,nogo,right,NA,1,strong,NA,NA,375.0,0.2,375.25,0.016666666666666666,375.26666666666665,0.03333333333333333,375.3,0.2,375.5,1.5666666666666667,left,12,0.017445300007238984
trest,1,4,172,catch,NA,NA,0,catch,NA,NA,377.06666666666666,0.2,377.31666666666666,0.0,377.31666666666666,0.0,377.31666666666666,0.25,377.56666666666666,1.5333333333333334,left,12,3.429999924264848e-05
trest,1,4,173,catch,NA,NA,0,catch,NA,NA,379.1,0.2,379.35,0.0,379.35,0.0,379.35,0.25,379.6,1.5666666666666667,left,12,3.5200006095692515e-05
trest,1,4,174,Rest,Rest,Rest,Rest,Rest,Rest,Rest,381.1666666666667,2.0,Rest,Rest,Rest,Rest,Rest,Rest,Rest,Rest,Rest,Rest,2.0
